# accelerometer data
# file: 'rgbd_dataset_freiburg1_desk2.bag'
# timestamp ax ay az
1305031522.886713 0.478957 8.297935 -8.214117
1305031522.889788 0.574749 8.297935 -8.094378
1305031522.890839 0.574749 8.297935 -8.094378
1305031522.894461 0.862123 8.202143 -7.807003
1305031522.895467 0.862123 8.202143 -7.807003
1305031522.898680 0.862123 8.297935 -7.519629
1305031522.899845 0.862123 8.297935 -7.519629
1305031522.903339 0.874097 8.297935 -7.759108
1305031522.904429 0.874097 8.297935 -7.759108
1305031522.905711 0.874097 8.297935 -7.759108
1305031522.906692 0.874097 8.297935 -7.759108
1305031522.909843 1.245289 8.010560 -7.519629
1305031522.910882 1.245289 8.010560 -7.519629
1305031522.914449 1.209367 8.010560 -7.232255
1305031522.915479 1.209367 8.010560 -7.232255
1305031522.918711 1.257263 8.010560 -7.232255
1305031522.919760 1.257263 8.010560 -7.232255
1305031522.923342 1.209367 8.010560 -7.232255
1305031522.924325 1.209367 8.010560 -7.232255
1305031522.925591 1.209367 8.010560 -7.232255
1305031522.926654 1.209367 8.010560 -7.232255
1305031522.929812 1.257263 8.022534 -7.052646
1305031522.930885 1.257263 8.022534 -7.052646
1305031522.934460 1.293185 8.106352 -6.849089
1305031522.935592 1.293185 8.106352 -6.849089
1305031522.938712 1.257263 8.202143 -6.849089
1305031522.939798 1.257263 8.202143 -6.849089
1305031522.943341 1.269237 8.106352 -6.992776
1305031522.944317 1.269237 8.106352 -6.992776
1305031522.945570 1.269237 8.106352 -6.992776
1305031522.946729 1.269237 8.106352 -6.992776
1305031522.949826 1.544637 8.202143 -7.232255
1305031522.950836 1.544637 8.202143 -7.232255
1305031522.954322 1.544637 8.393726 -7.447785
1305031522.955464 1.544637 8.393726 -7.447785
1305031522.958565 1.592533 8.585309 -7.435812
1305031522.959722 1.592533 8.585309 -7.435812
1305031522.960820 1.592533 8.585309 -7.435812
1305031522.962204 1.592533 8.585309 -7.435812
1305031522.965658 1.341080 8.681100 -7.854899
1305031522.966584 1.341080 8.681100 -7.854899
1305031522.969945 1.448846 8.585309 -8.190169
1305031522.971007 1.448846 8.585309 -8.190169
1305031522.974430 1.448846 8.681100 -8.190169
1305031522.975449 1.448846 8.681100 -8.190169
1305031522.978693 1.293185 8.728996 -8.381752
1305031522.979840 1.293185 8.728996 -8.381752
1305031522.983300 1.341080 8.681100 -8.381752
1305031522.984437 1.341080 8.681100 -8.381752
1305031522.985714 1.341080 8.681100 -8.381752
1305031522.986740 1.341080 8.681100 -8.381752
1305031522.989814 1.448846 8.681100 -8.573335
1305031522.990882 1.448846 8.681100 -8.573335
1305031522.994469 1.448846 8.585309 -8.561361
1305031522.995457 1.448846 8.585309 -8.561361
1305031522.998680 1.592533 8.441622 -8.669126
1305031522.999710 1.592533 8.441622 -8.669126
1305031523.003375 1.448846 8.417674 -8.764918
1305031523.004300 1.448846 8.417674 -8.764918
1305031523.005574 1.448846 8.417674 -8.764918
1305031523.006717 1.448846 8.417674 -8.764918
1305031523.009835 1.448846 8.202143 -8.764918
1305031523.010864 1.448846 8.202143 -8.764918
1305031523.014445 1.448846 8.202143 -8.860709
1305031523.015446 1.448846 8.202143 -8.860709
1305031523.018709 1.628455 8.022534 -8.944527
1305031523.019756 1.628455 8.022534 -8.944527
1305031523.023358 1.628455 8.345830 -8.525439
1305031523.024460 1.628455 8.345830 -8.525439
1305031523.025712 1.628455 8.345830 -8.525439
1305031523.026779 1.628455 8.345830 -8.525439
1305031523.029822 1.640429 8.106352 -8.573335
1305031523.030838 1.640429 8.106352 -8.573335
1305031523.034484 1.820038 8.106352 -8.381752
1305031523.035446 1.820038 8.106352 -8.381752
1305031523.038694 1.927803 8.106352 -8.381752
1305031523.039707 1.927803 8.106352 -8.381752
1305031523.043498 2.011621 8.202143 -7.998586
1305031523.044461 2.011621 8.202143 -7.998586
1305031523.045712 2.011621 8.202143 -7.998586
1305031523.046710 2.011621 8.202143 -7.998586
1305031523.049807 2.215177 8.010560 -7.998586
1305031523.050835 2.215177 8.010560 -7.998586
1305031523.054455 2.394786 7.818977 -7.807003
1305031523.055490 2.394786 7.818977 -7.807003
1305031523.058568 2.406760 7.818977 -7.615421
1305031523.059725 2.406760 7.818977 -7.615421
1305031523.060960 2.406760 7.818977 -7.615421
1305031523.062229 2.406760 7.818977 -7.615421
1305031523.065743 2.586369 7.627394 -7.807003
1305031523.066749 2.586369 7.627394 -7.807003
1305031523.069814 2.490578 7.292124 -7.807003
1305031523.070859 2.490578 7.292124 -7.807003
1305031523.074429 2.742030 7.340020 -7.902795
1305031523.075445 2.742030 7.340020 -7.902795
1305031523.078722 2.694135 7.244229 -7.998586
1305031523.079843 2.694135 7.244229 -7.998586
1305031523.083344 2.586369 7.052646 -8.285961
1305031523.084440 2.586369 7.052646 -8.285961
1305031523.085712 2.586369 7.052646 -8.285961
1305031523.086738 2.586369 7.052646 -8.285961
1305031523.089810 2.694135 6.956854 -8.381752
1305031523.090878 2.694135 6.956854 -8.381752
1305031523.094472 2.694135 6.861063 -8.573335
1305031523.095465 2.694135 6.861063 -8.573335
1305031523.098742 2.742030 6.861063 -8.477544
1305031523.099825 2.742030 6.861063 -8.477544
1305031523.100819 2.742030 6.861063 -8.477544
1305031523.104473 2.789926 6.669480 -8.621231
1305031523.105587 2.789926 6.669480 -8.621231
1305031523.108682 2.789926 6.669480 -8.573335
1305031523.109687 2.789926 6.669480 -8.573335
1305031523.113342 2.789926 6.861063 -8.573335
1305031523.114290 2.789926 6.861063 -8.573335
1305031523.115597 2.789926 6.861063 -8.573335
1305031523.116571 2.789926 6.861063 -8.573335
1305031523.119803 2.765978 7.052646 -8.285961
1305031523.120862 2.765978 7.052646 -8.285961
1305031523.124422 2.789926 7.148437 -8.142274
1305031523.125444 2.789926 7.148437 -8.142274
1305031523.128740 2.789926 6.956854 -8.142274
1305031523.129728 2.789926 6.956854 -8.142274
1305031523.133306 2.742030 7.052646 -7.807003
1305031523.134468 2.742030 7.052646 -7.807003
1305031523.135750 2.742030 7.052646 -7.807003
1305031523.136681 2.742030 7.052646 -7.807003
1305031523.139699 2.442682 6.956854 -7.615421
1305031523.140877 2.442682 6.956854 -7.615421
1305031523.144305 2.406760 7.052646 -7.615421
1305031523.145437 2.406760 7.052646 -7.615421
1305031523.148685 2.406760 6.861063 -7.759108
1305031523.149723 2.406760 6.861063 -7.759108
1305031523.153295 2.406760 6.861063 -7.423838
1305031523.154326 2.406760 6.861063 -7.423838
1305031523.155606 2.406760 6.861063 -7.423838
1305031523.156711 2.406760 6.861063 -7.423838
1305031523.159714 2.406760 6.908959 -7.423838
1305031523.160837 2.406760 6.908959 -7.423838
1305031523.164301 2.406760 6.908959 -7.040672
1305031523.165471 2.406760 6.908959 -7.040672
1305031523.168592 2.382812 7.148437 -7.040672
1305031523.169718 2.382812 7.148437 -7.040672
1305031523.170854 2.382812 7.148437 -7.040672
1305031523.172044 2.382812 7.148437 -7.040672
1305031523.175446 2.406760 7.148437 -7.040672
1305031523.176433 2.406760 7.148437 -7.040672
1305031523.179686 2.442682 7.196333 -7.232255
1305031523.180680 2.442682 7.196333 -7.232255
1305031523.184301 2.586369 7.052646 -7.232255
1305031523.185468 2.586369 7.052646 -7.232255
1305031523.188741 2.418734 6.885011 -7.447785
1305031523.189814 2.418734 6.885011 -7.447785
1305031523.193459 2.358865 6.956854 -7.423838
1305031523.194456 2.358865 6.956854 -7.423838
1305031523.195570 2.358865 6.956854 -7.423838
1305031523.196719 2.358865 6.956854 -7.423838
1305031523.199841 2.023594 6.861063 -7.423838
1305031523.200873 2.023594 6.861063 -7.423838
1305031523.204425 2.011621 6.669480 -7.423838
1305031523.205492 2.011621 6.669480 -7.423838
1305031523.208683 2.011621 6.669480 -7.519629
1305031523.209680 2.011621 6.669480 -7.519629
1305031523.213339 1.676350 6.861063 -7.328046
1305031523.214428 1.676350 6.861063 -7.328046
1305031523.215694 1.676350 6.861063 -7.328046
1305031523.216711 1.676350 6.861063 -7.328046
1305031523.219810 1.628455 7.052646 -7.040672
1305031523.220869 1.628455 7.052646 -7.040672
1305031523.224304 1.544637 7.052646 -7.040672
1305031523.225466 1.544637 7.052646 -7.040672
1305031523.228740 1.544637 7.148437 -7.040672
1305031523.229725 1.544637 7.148437 -7.040672
1305031523.231210 1.544637 7.148437 -7.040672
1305031523.232300 1.544637 7.148437 -7.040672
1305031523.235589 1.448846 7.244229 -6.849089
1305031523.236566 1.448846 7.244229 -6.849089
1305031523.239838 1.448846 7.244229 -6.992776
1305031523.240876 1.448846 7.244229 -6.992776
1305031523.244434 1.448846 7.196333 -6.849089
1305031523.245433 1.448846 7.196333 -6.849089
1305031523.248684 1.448846 7.052646 -7.232255
1305031523.249812 1.448846 7.052646 -7.232255
1305031523.253307 1.448846 7.052646 -7.040672
1305031523.254465 1.448846 7.052646 -7.040672
1305031523.255570 1.448846 7.052646 -7.040672
1305031523.256716 1.448846 7.052646 -7.040672
1305031523.259813 1.257263 7.196333 -7.040672
1305031523.260866 1.257263 7.196333 -7.040672
1305031523.264442 1.448846 7.148437 -7.016724
1305031523.265499 1.448846 7.148437 -7.016724
1305031523.268742 1.544637 7.052646 -7.064620
1305031523.269727 1.544637 7.052646 -7.064620
1305031523.273341 1.616481 7.052646 -7.232255
1305031523.274295 1.616481 7.052646 -7.232255
1305031523.275591 1.616481 7.052646 -7.232255
1305031523.276538 1.616481 7.052646 -7.232255
1305031523.279796 1.628455 6.908959 -7.615421
1305031523.280805 1.628455 6.908959 -7.615421
1305031523.284453 1.448846 7.052646 -7.783056
1305031523.285625 1.448846 7.052646 -7.783056
1305031523.288716 1.257263 6.908959 -7.818977
1305031523.289696 1.257263 6.908959 -7.818977
1305031523.293306 1.209367 7.052646 -7.795029
1305031523.294291 1.209367 7.052646 -7.795029
1305031523.295590 1.209367 7.052646 -7.795029
1305031523.296571 1.209367 7.052646 -7.795029
1305031523.299806 1.053706 6.861063 -8.094378
1305031523.300822 1.053706 6.861063 -8.094378
1305031523.304431 0.957915 6.885011 -7.902795
1305031523.305578 0.957915 6.885011 -7.902795
1305031523.308679 0.862123 6.885011 -7.830951
1305031523.309684 0.862123 6.885011 -7.830951
1305031523.313306 0.957915 6.861063 -7.998586
1305031523.314287 0.957915 6.861063 -7.998586
1305031523.315599 0.957915 6.861063 -7.998586
1305031523.316571 0.957915 6.861063 -7.998586
1305031523.319802 0.862123 7.052646 -7.783056
1305031523.320855 0.862123 7.052646 -7.783056
1305031523.324300 0.910019 7.052646 -7.711212
1305031523.325464 0.910019 7.052646 -7.711212
1305031523.328694 0.957915 7.052646 -7.423838
1305031523.329812 0.957915 7.052646 -7.423838
1305031523.333460 0.957915 7.148437 -7.040672
1305031523.334430 0.957915 7.148437 -7.040672
1305031523.335699 0.957915 7.148437 -7.040672
1305031523.336696 0.957915 7.148437 -7.040672
1305031523.339830 1.161471 7.052646 -6.992776
1305031523.340848 1.161471 7.052646 -6.992776
1305031523.344435 1.245289 6.861063 -6.657506
1305031523.345430 1.245289 6.861063 -6.657506
1305031523.348675 1.257263 6.849089 -6.681454
1305031523.351302 1.257263 6.849089 -6.681454
1305031523.353251 1.448846 6.669480 -6.633558
1305031523.354244 1.448846 6.669480 -6.633558
1305031523.355505 1.448846 6.669480 -6.633558
1305031523.356492 1.448846 6.669480 -6.633558
1305031523.359798 1.640429 6.669480 -6.465923
1305031523.360808 1.640429 6.669480 -6.465923
1305031523.364429 1.724246 6.453949 -6.657506
1305031523.365589 1.724246 6.453949 -6.657506
1305031523.368712 1.820038 6.382106 -6.657506
1305031523.369678 1.820038 6.382106 -6.657506
1305031523.371189 1.820038 6.382106 -6.657506
1305031523.372298 1.820038 6.382106 -6.657506
1305031523.375555 2.011621 6.142627 -6.561715
1305031523.376543 2.011621 6.142627 -6.561715
1305031523.379686 2.011621 6.094731 -6.370132
1305031523.380805 2.011621 6.094731 -6.370132
1305031523.384420 2.011621 5.903148 -6.465923
1305031523.385421 2.011621 5.903148 -6.465923
1305031523.388714 2.011621 5.735513 -6.370132
1305031523.389718 2.011621 5.735513 -6.370132
1305031523.391167 2.011621 5.735513 -6.370132
1305031523.392301 2.011621 5.735513 -6.370132
1305031523.395576 2.011621 5.711565 -6.370132
1305031523.396556 2.011621 5.711565 -6.370132
1305031523.399828 2.215177 5.424191 -6.465923
1305031523.400817 2.215177 5.424191 -6.465923
1305031523.404299 2.107412 5.328400 -6.262366
1305031523.405461 2.107412 5.328400 -6.262366
1305031523.408687 2.011621 5.376295 -5.986966
1305031523.409680 2.011621 5.376295 -5.986966
1305031523.413311 2.011621 5.424191 -5.903148
1305031523.414428 2.011621 5.424191 -5.903148
1305031523.415444 2.011621 5.424191 -5.903148
1305031523.418695 2.011621 5.615774 -5.891174
1305031523.419726 2.011621 5.615774 -5.891174
1305031523.423293 1.999647 5.759461 -5.412217
1305031523.424446 1.999647 5.759461 -5.412217
1305031523.425709 1.999647 5.759461 -5.412217
1305031523.426668 1.999647 5.759461 -5.412217
1305031523.429835 2.011621 5.903148 -5.316426
1305031523.430862 2.011621 5.903148 -5.316426
1305031523.434459 1.927803 6.094731 -5.316426
1305031523.435462 1.927803 6.094731 -5.316426
1305031523.438720 1.975699 6.286314 -4.933260
1305031523.439831 1.975699 6.286314 -4.933260
1305031523.443304 2.011621 6.382106 -5.076947
1305031523.444294 2.011621 6.382106 -5.076947
1305031523.445554 2.011621 6.382106 -5.076947
1305031523.446671 2.011621 6.382106 -5.076947
1305031523.449795 2.011621 6.477897 -4.741677
1305031523.450802 2.011621 6.477897 -4.741677
1305031523.454462 1.820038 6.477897 -4.741677
1305031523.455444 1.820038 6.477897 -4.741677
1305031523.458714 1.724246 6.573688 -4.741677
1305031523.459807 1.724246 6.573688 -4.741677
1305031523.463387 1.724246 6.669480 -4.645885
1305031523.464298 1.724246 6.669480 -4.645885
1305031523.465718 1.724246 6.669480 -4.645885
1305031523.466676 1.724246 6.669480 -4.645885
1305031523.469823 1.676350 6.813167 -4.741677
1305031523.470840 1.676350 6.813167 -4.741677
1305031523.474462 1.724246 6.861063 -5.076947
1305031523.475423 1.724246 6.861063 -5.076947
1305031523.478703 1.628455 6.861063 -4.933260
1305031523.479807 1.628455 6.861063 -4.933260
1305031523.483320 1.448846 6.956854 -4.933260
1305031523.484297 1.448846 6.956854 -4.933260
1305031523.485576 1.448846 6.956854 -4.933260
1305031523.486707 1.448846 6.956854 -4.933260
1305031523.489800 1.341080 7.148437 -4.933260
1305031523.490861 1.341080 7.148437 -4.933260
1305031523.494462 1.269237 7.148437 -5.124843
1305031523.495462 1.269237 7.148437 -5.124843
1305031523.498711 1.448846 7.148437 -5.316426
1305031523.499696 1.448846 7.148437 -5.316426
1305031523.500822 1.448846 7.148437 -5.316426
1305031523.502203 1.448846 7.148437 -5.316426
1305031523.505570 1.257263 7.148437 -5.124843
1305031523.506588 1.257263 7.148437 -5.124843
1305031523.509811 1.257263 7.052646 -5.100895
1305031523.510875 1.257263 7.052646 -5.100895
1305031523.514456 1.257263 6.861063 -4.933260
1305031523.515467 1.257263 6.861063 -4.933260
1305031523.518710 1.257263 6.669480 -4.741677
1305031523.519696 1.257263 6.669480 -4.741677
1305031523.523339 1.269237 6.477897 -4.693781
1305031523.524298 1.269237 6.477897 -4.693781
1305031523.525585 1.269237 6.477897 -4.693781
1305031523.526709 1.269237 6.477897 -4.693781
1305031523.529806 1.448846 6.477897 -4.550094
1305031523.530834 1.448846 6.477897 -4.550094
1305031523.534462 1.341080 6.286314 -4.358511
1305031523.535444 1.341080 6.286314 -4.358511
1305031523.538739 1.448846 6.286314 -4.358511
1305031523.539723 1.448846 6.286314 -4.358511
1305031523.541204 1.448846 6.286314 -4.358511
1305031523.542292 1.448846 6.286314 -4.358511
1305031523.545552 1.544637 6.286314 -4.346537
1305031523.546544 1.544637 6.286314 -4.346537
1305031523.549793 1.341080 6.286314 -3.975345
1305031523.550790 1.341080 6.286314 -3.975345
1305031523.554467 1.448846 6.190523 -3.783762
1305031523.555585 1.448846 6.190523 -3.783762
1305031523.558709 1.448846 6.286314 -3.783762
1305031523.559713 1.448846 6.286314 -3.783762
1305031523.563321 1.341080 6.142627 -3.927450
1305031523.564301 1.341080 6.142627 -3.927450
1305031523.565586 1.341080 6.142627 -3.927450
1305031523.566571 1.341080 6.142627 -3.927450
1305031523.570000 1.209367 6.669480 -3.687971
1305031523.571307 1.209367 6.669480 -3.687971
1305031523.574433 1.053706 6.861063 -3.592179
1305031523.575578 1.053706 6.861063 -3.592179
1305031523.578705 1.161471 7.052646 -3.687971
1305031523.579725 1.161471 7.052646 -3.687971
1305031523.581287 1.161471 7.052646 -3.687971
1305031523.584424 1.053706 7.435812 -3.687971
1305031523.585559 1.053706 7.435812 -3.687971
1305031523.588742 1.053706 7.531603 -3.975345
1305031523.589700 1.053706 7.531603 -3.975345
1305031523.593299 0.910019 7.818977 -3.975345
1305031523.594298 0.910019 7.818977 -3.975345
1305031523.595594 0.910019 7.818977 -3.975345
1305031523.596617 0.910019 7.818977 -3.975345
1305031523.599800 1.053706 7.627394 -4.358511
1305031523.600820 1.053706 7.627394 -4.358511
1305031523.604432 0.957915 7.531603 -4.454303
1305031523.605586 0.957915 7.531603 -4.454303
1305031523.608711 1.053706 7.435812 -4.717729
1305031523.609817 1.053706 7.435812 -4.717729
1305031523.613294 0.862123 7.148437 -4.741677
1305031523.614420 0.862123 7.148437 -4.741677
1305031523.615548 0.862123 7.148437 -4.741677
1305031523.616671 0.862123 7.148437 -4.741677
1305031523.619842 0.910019 6.861063 -5.124843
1305031523.620837 0.910019 6.861063 -5.124843
1305031523.624590 0.957915 6.477897 -5.316426
1305031523.625587 0.957915 6.477897 -5.316426
1305031523.628716 0.957915 6.477897 -5.124843
1305031523.629866 0.957915 6.477897 -5.124843
1305031523.633323 0.862123 6.286314 -4.933260
1305031523.634296 0.862123 6.286314 -4.933260
1305031523.635578 0.862123 6.286314 -4.933260
1305031523.636569 0.862123 6.286314 -4.933260
1305031523.639805 0.957915 6.286314 -5.124843
1305031523.640847 0.957915 6.286314 -5.124843
1305031523.644438 0.910019 6.286314 -5.076947
1305031523.645415 0.910019 6.286314 -5.076947
1305031523.648667 0.862123 6.286314 -4.741677
1305031523.649663 0.862123 6.286314 -4.741677
1305031523.653305 0.862123 6.094731 -4.765625
1305031523.654294 0.862123 6.094731 -4.765625
1305031523.655587 0.862123 6.094731 -4.765625
1305031523.656579 0.862123 6.094731 -4.765625
1305031523.659848 1.053706 6.094731 -4.645885
1305031523.660845 1.053706 6.094731 -4.645885
1305031523.664299 0.862123 6.082757 -4.454303
1305031523.665416 0.862123 6.082757 -4.454303
1305031523.668568 0.957915 6.118679 -4.310615
1305031523.669702 0.957915 6.118679 -4.310615
1305031523.670847 0.957915 6.118679 -4.310615
1305031523.671819 0.957915 6.118679 -4.310615
1305031523.675634 0.874097 6.286314 -3.975345
1305031523.676589 0.874097 6.286314 -3.975345
1305031523.679725 0.862123 6.453949 -3.879554
1305031523.680792 0.862123 6.453949 -3.879554
1305031523.684410 0.862123 6.453949 -3.604153
1305031523.685422 0.862123 6.453949 -3.604153
1305031523.688695 1.053706 6.382106 -3.975345
1305031523.689808 1.053706 6.382106 -3.975345
1305031523.693424 0.910019 6.382106 -3.927450
1305031523.694430 0.910019 6.382106 -3.927450
1305031523.695680 0.910019 6.382106 -3.927450
1305031523.696681 0.910019 6.382106 -3.927450
1305031523.699788 0.910019 6.142627 -3.975345
1305031523.700807 0.910019 6.142627 -3.975345
1305031523.704303 0.874097 6.118679 -3.975345
1305031523.705419 0.874097 6.118679 -3.975345
1305031523.708558 0.910019 6.094731 -4.310615
1305031523.709678 0.910019 6.094731 -4.310615
1305031523.710802 0.910019 6.094731 -4.310615
1305031523.711963 0.910019 6.094731 -4.310615
1305031523.715424 0.910019 6.142627 -4.310615
1305031523.716420 0.910019 6.142627 -4.310615
1305031523.719810 0.957915 6.286314 -4.262720
1305031523.720836 0.957915 6.286314 -4.262720
1305031523.724301 0.862123 6.286314 -4.071137
1305031523.725457 0.862123 6.286314 -4.071137
1305031523.728680 0.862123 6.190523 -4.166928
1305031523.729716 0.862123 6.190523 -4.166928
1305031523.733308 0.682514 6.286314 -3.987319
1305031523.734460 0.682514 6.286314 -3.987319
1305031523.735670 0.682514 6.286314 -3.987319
1305031523.736721 0.682514 6.286314 -3.987319
1305031523.739813 0.850149 6.286314 -4.071137
1305031523.740860 0.850149 6.286314 -4.071137
1305031523.744289 0.862123 6.286314 -4.023241
1305031523.745420 0.862123 6.286314 -4.023241
1305031523.748666 0.957915 6.286314 -3.975345
1305031523.749667 0.957915 6.286314 -3.975345
1305031523.753320 0.862123 6.190523 -4.071137
1305031523.754319 0.862123 6.190523 -4.071137
1305031523.755601 0.862123 6.190523 -4.071137
1305031523.756545 0.862123 6.190523 -4.071137
1305031523.759811 0.910019 6.142627 -4.166928
1305031523.760820 0.910019 6.142627 -4.166928
1305031523.764304 0.886071 6.094731 -4.166928
1305031523.765445 0.886071 6.094731 -4.166928
1305031523.768719 0.957915 6.094731 -4.166928
1305031523.769698 0.957915 6.094731 -4.166928
1305031523.771299 0.957915 6.094731 -4.166928
1305031523.774451 1.053706 6.046835 -4.645885
1305031523.775446 1.053706 6.046835 -4.645885
1305031523.778732 0.957915 6.094731 -4.741677
1305031523.779669 0.957915 6.094731 -4.741677
1305031523.783287 0.862123 6.118679 -4.741677
1305031523.784444 0.862123 6.118679 -4.741677
1305031523.785429 0.862123 6.118679 -4.741677
1305031523.788692 0.862123 6.190523 -5.029051
1305031523.789697 0.862123 6.190523 -5.029051
1305031523.793293 0.682514 6.286314 -4.933260
1305031523.794425 0.682514 6.286314 -4.933260
1305031523.795553 0.682514 6.286314 -4.933260
1305031523.796711 0.682514 6.286314 -4.933260
1305031523.799803 0.478957 6.525793 -5.076947
1305031523.800800 0.478957 6.525793 -5.076947
1305031523.804431 0.478957 6.837115 -5.220634
1305031523.805462 0.478957 6.837115 -5.220634
1305031523.808690 0.478957 6.861063 -5.124843
1305031523.809713 0.478957 6.861063 -5.124843
1305031523.813294 0.490931 7.220281 -5.124843
1305031523.814291 0.490931 7.220281 -5.124843
1305031523.815551 0.490931 7.220281 -5.124843
1305031523.816577 0.490931 7.220281 -5.124843
1305031523.819752 0.682514 7.292124 -5.220634
1305031523.820697 0.682514 7.292124 -5.220634
1305031523.824304 0.574749 7.340020 -5.220634
1305031523.825458 0.574749 7.340020 -5.220634
1305031523.828545 0.526853 7.435812 -5.484061
1305031523.829753 0.526853 7.435812 -5.484061
1305031523.830991 0.526853 7.435812 -5.484061
1305031523.832173 0.526853 7.435812 -5.484061
1305031523.835573 0.526853 7.627394 -5.508009
1305031523.836586 0.526853 7.627394 -5.508009
1305031523.839741 0.478957 7.531603 -5.496035
1305031523.840838 0.478957 7.531603 -5.496035
1305031523.844258 0.395140 7.627394 -5.603800
1305031523.845418 0.395140 7.627394 -5.603800
1305031523.848675 0.443035 7.651342 -5.603800
1305031523.849670 0.443035 7.651342 -5.603800
1305031523.853301 0.287374 7.818977 -5.891174
1305031523.854289 0.287374 7.818977 -5.891174
1305031523.855558 0.287374 7.818977 -5.891174
1305031523.856539 0.287374 7.818977 -5.891174
1305031523.859688 0.478957 8.010560 -6.082757
1305031523.860805 0.478957 8.010560 -6.082757
1305031523.864296 0.478957 7.818977 -6.226444
1305031523.865434 0.478957 7.818977 -6.226444
1305031523.868695 0.478957 7.675290 -6.370132
1305031523.869700 0.478957 7.675290 -6.370132
1305031523.873313 0.574749 7.579499 -6.561715
1305031523.874428 0.574749 7.579499 -6.561715
1305031523.875713 0.574749 7.579499 -6.561715
1305031523.876669 0.574749 7.579499 -6.561715
1305031523.879794 0.778306 7.292124 -6.657506
1305031523.880794 0.778306 7.292124 -6.657506
1305031523.884466 0.862123 7.292124 -6.274340
1305031523.885428 0.862123 7.292124 -6.274340
1305031523.888705 0.778306 7.196333 -6.274340
1305031523.889719 0.778306 7.196333 -6.274340
1305031523.893356 0.862123 7.196333 -6.274340
1305031523.894473 0.862123 7.196333 -6.274340
1305031523.895446 0.862123 7.196333 -6.274340
1305031523.898713 0.862123 7.148437 -6.250392
1305031523.899696 0.862123 7.148437 -6.250392
1305031523.903462 0.682514 7.148437 -5.891174
1305031523.904428 0.682514 7.148437 -5.891174
1305031523.905710 0.682514 7.148437 -5.891174
1305031523.906692 0.682514 7.148437 -5.891174
1305031523.909841 0.574749 7.244229 -5.891174
1305031523.910874 0.574749 7.244229 -5.891174
1305031523.914295 0.574749 7.292124 -5.867226
1305031523.915421 0.574749 7.292124 -5.867226
1305031523.918705 0.682514 7.268176 -5.508009
1305031523.919702 0.682514 7.268176 -5.508009
1305031523.920967 0.682514 7.268176 -5.508009
1305031523.922203 0.682514 7.268176 -5.508009
1305031523.925586 0.850149 7.244229 -5.508009
1305031523.926567 0.850149 7.244229 -5.508009
1305031523.929835 0.826201 7.244229 -5.124843
1305031523.930856 0.826201 7.244229 -5.124843
1305031523.934459 0.862123 7.244229 -5.100895
1305031523.935444 0.862123 7.244229 -5.100895
1305031523.938712 0.862123 7.435812 -5.076947
1305031523.939698 0.862123 7.435812 -5.076947
1305031523.943337 0.778306 7.435812 -5.112869
1305031523.944299 0.778306 7.435812 -5.112869
1305031523.945531 0.778306 7.435812 -5.112869
1305031523.946666 0.778306 7.435812 -5.112869
1305031523.949794 0.862123 7.435812 -5.220634
1305031523.950792 0.862123 7.435812 -5.220634
1305031523.954474 0.682514 7.627394 -5.124843
1305031523.955489 0.682514 7.627394 -5.124843
1305031523.958740 0.778306 7.627394 -5.172738
1305031523.959704 0.778306 7.627394 -5.172738
1305031523.960964 0.778306 7.627394 -5.172738
1305031523.962196 0.778306 7.627394 -5.172738
1305031523.965575 0.862123 7.818977 -5.460113
1305031523.966743 0.862123 7.818977 -5.460113
1305031523.969806 0.862123 7.723186 -5.603800
1305031523.970819 0.862123 7.723186 -5.603800
1305031523.974431 0.778306 7.627394 -5.891174
1305031523.975428 0.778306 7.627394 -5.891174
1305031523.978663 0.862123 7.340020 -6.178549
1305031523.979668 0.862123 7.340020 -6.178549
1305031523.983417 0.862123 7.244229 -6.465923
1305031523.984442 0.862123 7.244229 -6.465923
1305031523.985687 0.862123 7.244229 -6.465923
1305031523.986714 0.862123 7.244229 -6.465923
1305031523.989810 0.826201 7.148437 -6.465923
1305031523.990816 0.826201 7.148437 -6.465923
1305031523.994458 0.910019 6.861063 -6.657506
1305031523.995441 0.910019 6.861063 -6.657506
1305031523.998710 1.053706 6.837115 -6.657506
1305031523.999712 1.053706 6.837115 -6.657506
1305031524.003321 0.910019 6.573688 -6.561715
1305031524.004297 0.910019 6.573688 -6.561715
1305031524.005588 0.910019 6.573688 -6.561715
1305031524.006571 0.910019 6.573688 -6.561715
1305031524.009811 1.257263 6.286314 -6.657506
1305031524.010825 1.257263 6.286314 -6.657506
1305031524.014428 1.257263 5.807357 -6.657506
1305031524.015450 1.257263 5.807357 -6.657506
1305031524.018672 1.257263 5.711565 -6.370132
1305031524.019727 1.257263 5.711565 -6.370132
1305031524.023291 1.257263 5.711565 -6.465923
1305031524.024299 1.257263 5.711565 -6.465923
1305031524.025545 1.257263 5.711565 -6.465923
1305031524.026542 1.257263 5.711565 -6.465923
1305031524.029831 1.448846 5.699591 -6.262366
1305031524.030848 1.448846 5.699591 -6.262366
1305031524.034297 1.640429 5.711565 -6.262366
1305031524.035462 1.640429 5.711565 -6.262366
1305031524.038738 1.724246 5.615774 -6.274340
1305031524.039743 1.724246 5.615774 -6.274340
1305031524.040849 1.724246 5.615774 -6.274340
1305031524.042207 1.724246 5.615774 -6.274340
1305031524.045546 1.640429 5.735513 -6.082757
1305031524.046537 1.640429 5.735513 -6.082757
1305031524.049794 1.676350 5.807357 -6.082757
1305031524.050791 1.676350 5.807357 -6.082757
1305031524.054448 1.628455 6.094731 -5.939070
1305031524.055441 1.628455 6.094731 -5.939070
1305031524.058722 1.640429 6.286314 -6.262366
1305031524.059821 1.640429 6.286314 -6.262366
1305031524.063331 1.640429 6.286314 -6.274340
1305031524.064301 1.640429 6.286314 -6.274340
1305031524.065565 1.640429 6.286314 -6.274340
1305031524.066739 1.640429 6.286314 -6.274340
1305031524.069869 1.448846 6.501845 -6.370132
1305031524.070887 1.448846 6.501845 -6.370132
1305031524.074458 1.245289 6.765271 -6.465923
1305031524.075458 1.245289 6.765271 -6.465923
1305031524.078673 1.053706 6.861063 -6.465923
1305031524.079786 1.053706 6.861063 -6.465923
1305031524.083290 0.957915 6.861063 -6.657506
1305031524.084303 0.957915 6.861063 -6.657506
1305031524.085681 0.957915 6.861063 -6.657506
1305031524.086706 0.957915 6.861063 -6.657506
1305031524.089832 0.957915 7.052646 -6.465923
1305031524.090820 0.957915 7.052646 -6.465923
1305031524.094464 0.862123 7.244229 -6.657506
1305031524.095462 0.862123 7.244229 -6.657506
1305031524.098715 0.862123 7.244229 -6.370132
1305031524.099807 0.862123 7.244229 -6.370132
1305031524.103338 0.910019 7.435812 -6.322236
1305031524.104300 0.910019 7.435812 -6.322236
1305031524.105709 0.910019 7.435812 -6.322236
1305031524.106708 0.910019 7.435812 -6.322236
1305031524.109819 1.161471 7.627394 -6.274340
1305031524.110859 1.161471 7.627394 -6.274340
1305031524.114419 1.257263 7.579499 -6.082757
1305031524.115413 1.257263 7.579499 -6.082757
1305031524.118702 1.257263 7.435812 -6.274340
1305031524.119814 1.257263 7.435812 -6.274340
1305031524.123307 1.293185 7.244229 -6.370132
1305031524.124448 1.293185 7.244229 -6.370132
1305031524.125710 1.293185 7.244229 -6.370132
1305031524.126709 1.293185 7.244229 -6.370132
1305031524.129802 1.544637 6.861063 -6.370132
1305031524.130870 1.544637 6.861063 -6.370132
1305031524.134463 1.628455 6.669480 -6.465923
1305031524.135443 1.628455 6.669480 -6.465923
1305031524.138826 1.640429 6.382106 -6.849089
1305031524.139836 1.640429 6.382106 -6.849089
1305031524.143464 1.544637 6.142627 -6.849089
1305031524.144423 1.544637 6.142627 -6.849089
1305031524.145670 1.544637 6.142627 -6.849089
1305031524.146668 1.544637 6.142627 -6.849089
1305031524.149822 1.616481 6.094731 -7.423838
1305031524.150793 1.616481 6.094731 -7.423838
1305031524.154593 1.628455 5.903148 -7.615421
1305031524.155616 1.628455 5.903148 -7.615421
1305031524.158742 1.724246 5.903148 -7.711212
1305031524.159714 1.724246 5.903148 -7.711212
1305031524.163304 1.640429 5.903148 -7.807003
1305031524.164310 1.640429 5.903148 -7.807003
1305031524.165597 1.640429 5.903148 -7.807003
1305031524.166599 1.640429 5.903148 -7.807003
1305031524.169807 1.448846 6.094731 -7.759108
1305031524.170837 1.448846 6.094731 -7.759108
1305031524.174298 1.448846 6.094731 -7.807003
1305031524.175469 1.448846 6.094731 -7.807003
1305031524.178550 1.257263 6.094731 -7.711212
1305031524.179570 1.257263 6.094731 -7.711212
1305031524.180826 1.257263 6.094731 -7.711212
1305031524.182288 1.257263 6.094731 -7.711212
1305031524.185575 1.341080 6.286314 -7.615421
1305031524.186575 1.341080 6.286314 -7.615421
1305031524.189845 1.448846 6.286314 -7.615421
1305031524.190836 1.448846 6.286314 -7.615421
1305031524.194446 1.053706 6.525793 -7.615421
1305031524.195460 1.053706 6.525793 -7.615421
1305031524.198718 0.910019 6.765271 -7.232255
1305031524.199670 0.910019 6.765271 -7.232255
1305031524.203305 0.862123 6.861063 -7.615421
1305031524.204445 0.862123 6.861063 -7.615421
1305031524.205711 0.862123 6.861063 -7.615421
1305031524.206711 0.862123 6.861063 -7.615421
1305031524.209841 0.826201 7.220281 -7.711212
1305031524.210819 0.826201 7.220281 -7.711212
1305031524.214419 0.778306 7.340020 -7.615421
1305031524.215415 0.778306 7.340020 -7.615421
1305031524.218801 0.682514 7.579499 -7.423838
1305031524.219833 0.682514 7.579499 -7.423838
1305031524.223323 0.478957 7.627394 -7.423838
1305031524.224453 0.478957 7.627394 -7.423838
1305031524.225711 0.478957 7.627394 -7.423838
1305031524.226719 0.478957 7.627394 -7.423838
1305031524.229817 0.478957 7.627394 -7.615421
1305031524.230846 0.478957 7.627394 -7.615421
1305031524.234455 0.478957 7.579499 -7.423838
1305031524.235448 0.478957 7.579499 -7.423838
1305031524.238727 0.466983 7.435812 -7.423838
1305031524.239740 0.466983 7.435812 -7.423838
1305031524.243306 0.502905 7.435812 -7.423838
1305031524.244435 0.502905 7.435812 -7.423838
1305031524.245414 0.502905 7.435812 -7.423838
1305031524.248574 0.478957 7.435812 -7.423838
1305031524.249666 0.478957 7.435812 -7.423838
1305031524.252966 0.526853 7.244229 -7.399890
1305031524.254293 0.526853 7.244229 -7.399890
1305031524.255570 0.526853 7.244229 -7.399890
1305031524.256618 0.526853 7.244229 -7.399890
1305031524.259698 0.502905 7.244229 -7.232255
1305031524.260837 0.502905 7.244229 -7.232255
1305031524.264298 0.574749 7.220281 -7.136463
1305031524.265458 0.574749 7.220281 -7.136463
1305031524.268723 0.478957 7.292124 -6.849089
1305031524.269711 0.478957 7.292124 -6.849089
1305031524.273322 0.478957 7.340020 -6.609610
1305031524.274297 0.478957 7.340020 -6.609610
1305031524.275597 0.478957 7.340020 -6.609610
1305031524.276561 0.478957 7.340020 -6.609610
1305031524.279704 0.478957 7.627394 -6.657506
1305031524.280791 0.478957 7.627394 -6.657506
1305031524.284305 0.478957 7.675290 -6.561715
1305031524.285409 0.478957 7.675290 -6.561715
1305031524.288739 0.395140 7.818977 -6.657506
1305031524.289730 0.395140 7.818977 -6.657506
1305031524.293312 0.287374 7.962665 -6.657506
1305031524.294301 0.287374 7.962665 -6.657506
1305031524.295591 0.287374 7.962665 -6.657506
1305031524.296567 0.287374 7.962665 -6.657506
1305031524.299815 0.478957 8.202143 -6.753297
1305031524.300838 0.478957 8.202143 -6.753297
1305031524.304446 0.502905 8.106352 -7.232255
1305031524.305550 0.502905 8.106352 -7.232255
1305031524.308752 0.478957 8.381752 -7.040672
1305031524.309817 0.478957 8.381752 -7.040672
1305031524.313426 0.443035 8.202143 -7.411864
1305031524.314421 0.443035 8.202143 -7.411864
1305031524.315674 0.443035 8.202143 -7.411864
1305031524.316699 0.443035 8.202143 -7.411864
1305031524.319826 0.095791 8.034508 -7.423838
1305031524.320822 0.095791 8.034508 -7.423838
1305031524.324449 -0.083818 7.962665 -7.232255
1305031524.325428 -0.083818 7.962665 -7.232255
1305031524.328678 -0.275400 7.651342 -7.040672
1305031524.329724 -0.275400 7.651342 -7.040672
1305031524.333291 -0.371192 7.603447 -6.849089
1305031524.334294 -0.371192 7.603447 -6.849089
1305031524.335596 -0.371192 7.603447 -6.849089
1305031524.336586 -0.371192 7.603447 -6.849089
1305031524.339814 -0.191583 7.340020 -6.561715
1305031524.340836 -0.191583 7.340020 -6.561715
1305031524.344434 -0.275400 7.579499 -6.082757
1305031524.345416 -0.275400 7.579499 -6.082757
1305031524.348669 0.059870 7.579499 -6.274340
1305031524.349664 0.059870 7.579499 -6.274340
1305031524.353314 -0.263426 7.818977 -5.891174
1305031524.354457 -0.263426 7.818977 -5.891174
1305031524.355699 -0.263426 7.818977 -5.891174
1305031524.356742 -0.263426 7.818977 -5.891174
1305031524.359801 -0.083818 7.914769 -5.795383
1305031524.360842 -0.083818 7.914769 -5.795383
1305031524.364299 0.059870 7.914769 -5.891174
1305031524.365440 0.059870 7.914769 -5.891174
1305031524.368747 0.011974 7.998586 -5.891174
1305031524.369711 0.011974 7.998586 -5.891174
1305031524.373328 0.095791 8.010560 -6.178549
1305031524.374310 0.095791 8.010560 -6.178549
1305031524.375571 0.095791 8.010560 -6.178549
1305031524.376552 0.095791 8.010560 -6.178549
1305031524.379870 0.107765 8.010560 -6.465923
1305031524.380792 0.107765 8.010560 -6.465923
1305031524.384426 0.107765 8.058456 -6.465923
1305031524.385442 0.107765 8.058456 -6.465923
1305031524.388722 0.143687 8.010560 -6.705402
1305031524.389808 0.143687 8.010560 -6.705402
1305031524.393305 0.119739 8.010560 -6.657506
1305031524.394297 0.119739 8.010560 -6.657506
1305031524.395570 0.119739 8.010560 -6.657506
1305031524.396600 0.119739 8.010560 -6.657506
1305031524.399836 0.107765 8.010560 -6.849089
1305031524.400836 0.107765 8.010560 -6.849089
1305031524.404435 0.119739 7.986612 -6.753297
1305031524.405457 0.119739 7.986612 -6.753297
1305031524.408746 0.107765 7.914769 -6.753297
1305031524.409695 0.107765 7.914769 -6.753297
1305031524.413421 0.287374 7.627394 -7.040672
1305031524.414420 0.287374 7.627394 -7.040672
1305031524.415546 0.287374 7.627394 -7.040672
1305031524.416699 0.287374 7.627394 -7.040672
1305031524.419811 0.191583 7.435812 -6.992776
1305031524.420840 0.191583 7.435812 -6.992776
1305031524.424304 0.191583 7.244229 -7.040672
1305031524.425460 0.191583 7.244229 -7.040672
1305031524.428714 0.191583 7.220281 -7.040672
1305031524.429715 0.191583 7.220281 -7.040672
1305031524.433297 0.107765 7.148437 -6.657506
1305031524.434297 0.107765 7.148437 -6.657506
1305031524.435590 0.107765 7.148437 -6.657506
1305031524.436571 0.107765 7.148437 -6.657506
1305031524.439727 0.191583 7.196333 -6.465923
1305031524.440883 0.191583 7.196333 -6.465923
1305031524.444430 0.107765 7.292124 -6.274340
1305031524.445416 0.107765 7.292124 -6.274340
1305031524.448658 0.287374 7.579499 -6.274340
1305031524.449667 0.287374 7.579499 -6.274340
1305031524.453290 0.466983 7.627394 -6.274340
1305031524.454293 0.466983 7.627394 -6.274340
1305031524.455592 0.466983 7.627394 -6.274340
1305031524.456571 0.466983 7.627394 -6.274340
1305031524.459803 0.478957 7.627394 -6.298288
1305031524.460837 0.478957 7.627394 -6.298288
1305031524.464445 0.478957 7.627394 -6.465923
1305031524.465420 0.478957 7.627394 -6.465923
1305031524.468723 0.490931 7.723186 -6.274340
1305031524.469723 0.490931 7.723186 -6.274340
1305031524.473290 0.287374 7.723186 -6.250392
1305031524.474299 0.287374 7.723186 -6.250392
1305031524.475572 0.287374 7.723186 -6.250392
1305031524.476564 0.287374 7.723186 -6.250392
1305031524.479670 0.107765 7.723186 -6.274340
1305031524.480669 0.107765 7.723186 -6.274340
1305031524.484303 0.107765 7.962665 -6.274340
1305031524.485445 0.107765 7.962665 -6.274340
1305031524.488731 0.107765 7.962665 -6.274340
1305031524.489749 0.107765 7.962665 -6.274340
1305031524.493285 0.095791 8.106352 -6.226444
1305031524.494301 0.095791 8.106352 -6.226444
1305031524.495590 0.095791 8.106352 -6.226444
1305031524.496598 0.095791 8.106352 -6.226444
1305031524.499830 0.095791 8.393726 -6.082757
1305031524.500836 0.095791 8.393726 -6.082757
1305031524.504450 0.011974 8.585309 -5.891174
1305031524.505581 0.011974 8.585309 -5.891174
1305031524.508741 0.191583 8.489518 -5.891174
1305031524.509696 0.191583 8.489518 -5.891174
1305031524.513287 0.191583 8.441622 -5.879200
1305031524.514294 0.191583 8.441622 -5.879200
1305031524.515547 0.191583 8.441622 -5.879200
1305031524.516579 0.191583 8.441622 -5.879200
1305031524.519804 0.083818 8.417674 -5.508009
1305031524.520822 0.083818 8.417674 -5.508009
1305031524.524429 0.287374 8.202143 -5.795383
1305031524.525428 0.287374 8.202143 -5.795383
1305031524.528698 0.119739 8.345830 -5.555904
1305031524.529693 0.119739 8.345830 -5.555904
1305031524.533426 0.107765 8.202143 -5.891174
1305031524.534462 0.107765 8.202143 -5.891174
1305031524.535673 0.107765 8.202143 -5.891174
1305031524.536703 0.107765 8.202143 -5.891174
1305031524.539796 0.107765 8.202143 -5.699591
1305031524.540840 0.107765 8.202143 -5.699591
1305031524.544432 0.287374 8.010560 -5.891174
1305031524.545542 0.287374 8.010560 -5.891174
1305031524.548669 0.478957 8.106352 -6.082757
1305031524.549704 0.478957 8.106352 -6.082757
1305031524.553326 0.191583 8.106352 -6.178549
1305031524.554289 0.191583 8.106352 -6.178549
1305031524.555626 0.191583 8.106352 -6.178549
1305031524.556579 0.191583 8.106352 -6.178549
1305031524.559705 0.191583 8.202143 -6.274340
1305031524.560837 0.191583 8.202143 -6.274340
1305031524.564294 0.107765 8.381752 -6.465923
1305031524.565284 0.107765 8.381752 -6.465923
1305031524.568572 0.107765 8.202143 -6.657506
1305031524.569712 0.107765 8.202143 -6.657506
1305031524.570973 0.107765 8.202143 -6.657506
1305031524.571969 0.107765 8.202143 -6.657506
1305031524.575560 0.095791 8.297935 -6.465923
1305031524.576558 0.095791 8.297935 -6.465923
1305031524.579673 0.095791 8.393726 -6.298288
1305031524.580667 0.095791 8.393726 -6.298288
1305031524.584439 0.011974 8.393726 -5.891174
1305031524.585573 0.011974 8.393726 -5.891174
1305031524.588748 0.107765 8.585309 -5.699591
1305031524.589697 0.107765 8.585309 -5.699591
1305031524.593299 0.191583 8.585309 -5.531956
1305031524.594329 0.191583 8.585309 -5.531956
1305031524.595588 0.191583 8.585309 -5.531956
1305031524.596569 0.191583 8.585309 -5.531956
1305031524.599833 0.478957 8.776892 -5.316426
1305031524.600815 0.478957 8.776892 -5.316426
1305031524.604298 0.574749 8.776892 -5.124843
1305031524.605459 0.574749 8.776892 -5.124843
1305031524.608748 0.682514 8.776892 -5.029051
1305031524.609698 0.682514 8.776892 -5.029051
1305031524.613288 0.778306 8.776892 -5.029051
1305031524.614293 0.778306 8.776892 -5.029051
1305031524.615548 0.778306 8.776892 -5.029051
1305031524.616541 0.778306 8.776892 -5.029051
1305031524.619717 0.826201 8.776892 -4.753651
1305031524.620840 0.826201 8.776892 -4.753651
1305031524.624302 0.862123 8.776892 -4.693781
1305031524.625445 0.862123 8.776892 -4.693781
1305031524.628725 0.778306 8.776892 -4.550094
1305031524.629696 0.778306 8.776892 -4.550094
1305031524.633307 0.778306 8.776892 -4.741677
1305031524.634292 0.778306 8.776892 -4.741677
1305031524.635572 0.778306 8.776892 -4.741677
1305031524.636547 0.778306 8.776892 -4.741677
1305031524.639830 0.886071 8.776892 -5.124843
1305031524.640877 0.886071 8.776892 -5.124843
1305031524.644301 0.862123 8.872683 -5.136817
1305031524.645417 0.862123 8.872683 -5.136817
1305031524.648671 0.862123 8.872683 -5.460113
1305031524.649668 0.862123 8.872683 -5.460113
1305031524.653312 0.850149 8.968475 -5.603800
1305031524.654305 0.850149 8.968475 -5.603800
1305031524.655615 0.850149 8.968475 -5.603800
1305031524.656569 0.850149 8.968475 -5.603800
1305031524.659755 0.826201 8.968475 -5.603800
1305031524.660838 0.826201 8.968475 -5.603800
1305031524.664299 0.862123 9.148084 -5.843279
1305031524.665445 0.862123 9.148084 -5.843279
1305031524.668621 0.886071 8.824788 -5.891174
1305031524.669711 0.886071 8.824788 -5.891174
1305031524.670965 0.886071 8.824788 -5.891174
1305031524.671969 0.886071 8.824788 -5.891174
1305031524.675590 0.862123 8.872683 -5.603800
1305031524.676550 0.862123 8.872683 -5.603800
1305031524.679791 1.053706 8.776892 -5.843279
1305031524.680822 1.053706 8.776892 -5.843279
1305031524.684464 1.233315 8.776892 -5.484061
1305031524.685442 1.233315 8.776892 -5.484061
1305031524.688713 1.053706 8.776892 -5.316426
1305031524.689698 1.053706 8.776892 -5.316426
1305031524.693306 0.957915 8.776892 -5.124843
1305031524.694288 0.957915 8.776892 -5.124843
1305031524.695587 0.957915 8.776892 -5.124843
1305031524.696591 0.957915 8.776892 -5.124843
1305031524.699804 1.245289 8.393726 -5.316426
1305031524.700802 1.245289 8.393726 -5.316426
1305031524.704453 1.448846 8.202143 -5.508009
1305031524.705584 1.448846 8.202143 -5.508009
1305031524.708715 1.293185 8.202143 -5.699591
1305031524.709808 1.293185 8.202143 -5.699591
1305031524.713287 1.448846 8.010560 -5.843279
1305031524.714292 1.448846 8.010560 -5.843279
1305031524.715550 1.448846 8.010560 -5.843279
1305031524.716578 1.448846 8.010560 -5.843279
1305031524.719801 1.640429 7.962665 -6.082757
1305031524.720820 1.640429 7.962665 -6.082757
1305031524.724449 1.544637 7.962665 -5.986966
1305031524.725457 1.544637 7.962665 -5.986966
1305031524.728710 1.820038 7.675290 -6.274340
1305031524.729813 1.820038 7.675290 -6.274340
1305031524.733284 1.640429 7.627394 -6.082757
1305031524.734295 1.640429 7.627394 -6.082757
1305031524.735574 1.640429 7.627394 -6.082757
1305031524.736547 1.640429 7.627394 -6.082757
1305031524.739743 1.640429 7.603447 -6.082757
1305031524.740696 1.640429 7.603447 -6.082757
1305031524.744306 1.592533 7.627394 -5.891174
1305031524.745422 1.592533 7.627394 -5.891174
1305031524.748707 1.628455 7.627394 -5.699591
1305031524.749672 1.628455 7.627394 -5.699591
1305031524.753299 1.448846 7.675290 -5.508009
1305031524.754292 1.448846 7.675290 -5.508009
1305031524.755587 1.448846 7.675290 -5.508009
1305031524.756740 1.448846 7.675290 -5.508009
1305031524.759838 1.640429 8.010560 -5.124843
1305031524.760824 1.640429 8.010560 -5.124843
1305031524.764434 1.724246 8.202143 -4.741677
1305031524.765568 1.724246 8.202143 -4.741677
1305031524.768723 1.820038 8.297935 -4.550094
1305031524.769845 1.820038 8.297935 -4.550094
1305031524.773304 1.820038 8.393726 -4.645885
1305031524.774302 1.820038 8.393726 -4.645885
1305031524.775576 1.820038 8.393726 -4.645885
1305031524.776542 1.820038 8.393726 -4.645885
1305031524.779714 2.011621 8.393726 -4.550094
1305031524.780795 2.011621 8.393726 -4.550094
1305031524.784423 2.107412 8.022534 -5.124843
1305031524.785541 2.107412 8.022534 -5.124843
1305031524.788674 2.011621 7.914769 -5.795383
1305031524.789796 2.011621 7.914769 -5.795383
1305031524.793427 1.975699 7.818977 -6.226444
1305031524.794444 1.975699 7.818977 -6.226444
1305031524.795711 1.975699 7.818977 -6.226444
1305031524.796698 1.975699 7.818977 -6.226444
1305031524.800449 1.676350 7.627394 -6.944880
1305031524.801582 1.676350 7.627394 -6.944880
1305031524.804710 1.640429 7.531603 -7.040672
1305031524.805692 1.640429 7.531603 -7.040672
1305031524.809297 1.628455 7.244229 -7.232255
1305031524.810298 1.628455 7.244229 -7.232255
1305031524.813547 1.592533 7.244229 -7.232255
1305031524.814541 1.592533 7.244229 -7.232255
1305031524.815802 1.592533 7.244229 -7.232255
1305031524.816791 1.592533 7.244229 -7.232255
1305031524.820457 1.724246 7.244229 -7.411864
1305031524.821585 1.724246 7.244229 -7.411864
1305031524.824795 1.640429 7.435812 -7.040672
1305031524.825819 1.640429 7.435812 -7.040672
1305031524.829582 1.820038 7.651342 -6.705402
1305031524.830583 1.820038 7.651342 -6.705402
1305031524.833864 1.628455 8.010560 -6.286314
1305031524.834819 1.628455 8.010560 -6.286314
1305031524.838447 1.544637 8.393726 -6.082757
1305031524.839585 1.544637 8.393726 -6.082757
1305031524.840713 1.544637 8.393726 -6.082757
1305031524.841837 1.544637 8.393726 -6.082757
1305031524.845423 1.640429 8.728996 -5.939070
1305031524.846421 1.640429 8.728996 -5.939070
1305031524.849677 1.448846 8.872683 -5.891174
1305031524.850670 1.448846 8.872683 -5.891174
1305031524.854216 1.293185 9.136110 -6.082757
1305031524.855292 1.293185 9.136110 -6.082757
1305031524.858601 1.257263 9.207953 -5.915122
1305031524.859568 1.257263 9.207953 -5.915122
1305031524.860837 1.257263 9.207953 -5.915122
1305031524.861963 1.257263 9.207953 -5.915122
1305031524.865565 1.053706 9.351641 -6.082757
1305031524.866582 1.053706 9.351641 -6.082757
1305031524.869847 1.053706 9.207953 -6.082757
1305031524.870887 1.053706 9.207953 -6.082757
1305031524.874495 0.778306 9.207953 -6.082757
1305031524.875460 0.778306 9.207953 -6.082757
1305031524.878709 0.526853 9.255849 -6.274340
1305031524.879686 0.526853 9.255849 -6.274340
1305031524.883297 0.478957 9.112162 -6.178549
1305031524.884293 0.478957 9.112162 -6.178549
1305031524.885541 0.478957 9.112162 -6.178549
1305031524.886531 0.478957 9.112162 -6.178549
1305031524.889806 0.478957 9.148084 -5.915122
1305031524.890837 0.478957 9.148084 -5.915122
1305031524.894569 0.526853 8.872683 -6.178549
1305031524.895585 0.526853 8.872683 -6.178549
1305031524.898710 0.574749 8.968475 -6.178549
1305031524.899737 0.574749 8.968475 -6.178549
1305031524.903342 0.682514 8.968475 -6.082757
1305031524.904294 0.682514 8.968475 -6.082757
1305031524.905595 0.682514 8.968475 -6.082757
1305031524.906580 0.682514 8.968475 -6.082757
1305031524.909791 0.682514 8.968475 -5.915122
1305031524.910892 0.682514 8.968475 -5.915122
1305031524.914425 0.957915 8.824788 -6.082757
1305031524.915422 0.957915 8.824788 -6.082757
1305031524.918705 0.957915 9.112162 -5.939070
1305031524.919681 0.957915 9.112162 -5.939070
1305031524.923302 1.053706 9.160058 -6.082757
1305031524.924308 1.053706 9.160058 -6.082757
1305031524.925568 1.053706 9.160058 -6.082757
1305031524.926538 1.053706 9.160058 -6.082757
1305031524.929794 1.257263 9.160058 -6.465923
1305031524.930803 1.257263 9.160058 -6.465923
1305031524.934469 1.257263 9.351641 -6.633558
1305031524.935465 1.257263 9.351641 -6.633558
1305031524.938695 1.053706 9.543224 -6.465923
1305031524.939712 1.053706 9.543224 -6.465923
1305031524.940821 1.053706 9.543224 -6.465923
1305031524.942258 1.053706 9.543224 -6.465923
1305031524.945544 1.257263 9.351641 -6.657506
1305031524.946542 1.257263 9.351641 -6.657506
1305031524.949792 1.245289 9.447432 -6.657506
1305031524.950792 1.245289 9.447432 -6.657506
1305031524.954426 1.544637 9.255849 -6.657506
1305031524.955442 1.544637 9.255849 -6.657506
1305031524.958693 1.257263 9.112162 -6.465923
1305031524.959699 1.257263 9.112162 -6.465923
1305031524.963324 1.293185 8.968475 -6.370132
1305031524.964299 1.293185 8.968475 -6.370132
1305031524.965552 1.293185 8.968475 -6.370132
1305031524.966565 1.293185 8.968475 -6.370132
1305031524.969801 1.257263 8.776892 -6.250392
1305031524.970848 1.257263 8.776892 -6.250392
1305031524.974464 1.257263 8.752944 -5.986966
1305031524.975465 1.257263 8.752944 -5.986966
1305031524.978709 1.269237 8.489518 -5.891174
1305031524.979699 1.269237 8.489518 -5.891174
1305031524.983299 1.628455 8.393726 -5.699591
1305031524.984293 1.628455 8.393726 -5.699591
1305031524.985544 1.628455 8.393726 -5.699591
1305031524.986585 1.628455 8.393726 -5.699591
1305031524.989799 1.628455 8.345830 -5.508009
1305031524.990824 1.628455 8.345830 -5.508009
1305031524.994446 1.616481 8.393726 -5.508009
1305031524.995464 1.616481 8.393726 -5.508009
1305031524.998693 1.640429 8.345830 -5.412217
1305031524.999713 1.640429 8.345830 -5.412217
1305031525.003304 1.820038 8.202143 -5.484061
1305031525.004420 1.820038 8.202143 -5.484061
1305031525.005569 1.820038 8.202143 -5.484061
1305031525.006555 1.820038 8.202143 -5.484061
1305031525.009807 2.011621 8.202143 -5.460113
1305031525.010821 2.011621 8.202143 -5.460113
1305031525.014297 2.011621 8.202143 -5.412217
1305031525.015416 2.011621 8.202143 -5.412217
1305031525.018667 2.035568 8.106352 -5.531956
1305031525.019706 2.035568 8.106352 -5.531956
1305031525.023338 2.011621 8.010560 -5.603800
1305031525.024308 2.011621 8.010560 -5.603800
1305031525.025709 2.011621 8.010560 -5.603800
1305031525.026709 2.011621 8.010560 -5.603800
1305031525.029802 2.107412 8.010560 -5.891174
1305031525.030813 2.107412 8.010560 -5.891174
1305031525.034583 2.215177 7.962665 -6.274340
1305031525.035585 2.215177 7.962665 -6.274340
1305031525.038710 2.011621 8.010560 -6.322236
1305031525.039813 2.011621 8.010560 -6.322236
1305031525.043303 2.011621 8.010560 -6.657506
1305031525.044312 2.011621 8.010560 -6.657506
1305031525.045544 2.011621 8.010560 -6.657506
1305031525.046666 2.011621 8.010560 -6.657506
1305031525.049816 1.975699 8.202143 -7.136463
1305031525.050792 1.975699 8.202143 -7.136463
1305031525.054444 1.724246 8.297935 -7.232255
1305031525.055461 1.724246 8.297935 -7.232255
1305031525.058693 1.820038 8.202143 -7.423838
1305031525.059695 1.820038 8.202143 -7.423838
1305031525.063303 1.975699 8.202143 -7.423838
1305031525.064300 1.975699 8.202143 -7.423838
1305031525.065719 1.975699 8.202143 -7.423838
1305031525.066708 1.975699 8.202143 -7.423838
1305031525.069806 2.023594 8.106352 -7.615421
1305031525.070854 2.023594 8.106352 -7.615421
1305031525.074585 2.011621 8.297935 -7.232255
1305031525.075587 2.011621 8.297935 -7.232255
1305031525.078719 2.035568 8.381752 -7.423838
1305031525.079697 2.035568 8.381752 -7.423838
1305031525.083298 2.011621 8.393726 -7.232255
1305031525.084297 2.011621 8.393726 -7.232255
1305031525.085539 2.011621 8.393726 -7.232255
1305031525.086655 2.011621 8.393726 -7.232255
1305031525.089851 2.215177 8.369778 -7.040672
1305031525.090831 2.215177 8.369778 -7.040672
1305031525.094489 2.215177 8.345830 -7.040672
1305031525.095463 2.215177 8.345830 -7.040672
1305031525.098743 2.011621 8.202143 -7.028698
1305031525.099696 2.011621 8.202143 -7.028698
1305031525.103313 2.215177 8.106352 -7.040672
1305031525.104304 2.215177 8.106352 -7.040672
1305031525.105584 2.215177 8.106352 -7.040672
1305031525.106568 2.215177 8.106352 -7.040672
1305031525.109806 2.215177 7.914769 -7.232255
1305031525.110840 2.215177 7.914769 -7.232255
1305031525.114419 2.310969 7.723186 -7.423838
1305031525.115540 2.310969 7.723186 -7.423838
1305031525.118697 2.215177 7.818977 -7.136463
1305031525.119816 2.215177 7.818977 -7.136463
1305031525.123322 2.107412 7.818977 -7.423838
1305031525.124304 2.107412 7.818977 -7.423838
1305031525.125693 2.107412 7.818977 -7.423838
1305031525.126714 2.107412 7.818977 -7.423838
1305031525.129807 2.035568 7.962665 -7.711212
1305031525.130818 2.035568 7.962665 -7.711212
1305031525.134493 2.011621 7.962665 -7.759108
1305031525.135464 2.011621 7.962665 -7.759108
1305031525.138586 2.107412 8.010560 -7.807003
1305031525.139716 2.107412 8.010560 -7.807003
1305031525.140881 2.107412 8.010560 -7.807003
1305031525.141966 2.107412 8.010560 -7.807003
1305031525.145419 2.406760 7.914769 -7.711212
1305031525.146575 2.406760 7.914769 -7.711212
1305031525.149830 2.394786 7.914769 -7.423838
1305031525.150796 2.394786 7.914769 -7.423838
1305031525.154420 2.586369 7.627394 -7.615421
1305031525.155462 2.586369 7.627394 -7.615421
1305031525.158739 2.694135 7.435812 -7.519629
1305031525.159733 2.694135 7.435812 -7.519629
1305031525.163320 2.742030 7.340020 -7.615421
1305031525.164311 2.742030 7.340020 -7.615421
1305031525.165582 2.742030 7.340020 -7.615421
1305031525.166718 2.742030 7.340020 -7.615421
1305031525.169849 2.789926 7.244229 -7.615421
1305031525.170837 2.789926 7.244229 -7.615421
1305031525.174431 2.789926 7.220281 -7.711212
1305031525.175432 2.789926 7.220281 -7.711212
1305031525.178678 2.789926 7.148437 -7.519629
1305031525.179835 2.789926 7.148437 -7.519629
1305031525.183295 2.789926 7.244229 -7.795029
1305031525.184300 2.789926 7.244229 -7.795029
1305031525.185546 2.789926 7.244229 -7.795029
1305031525.186673 2.789926 7.244229 -7.795029
1305031525.189806 2.777952 7.244229 -7.615421
1305031525.190820 2.777952 7.244229 -7.615421
1305031525.194484 2.789926 7.052646 -7.423838
1305031525.195463 2.789926 7.052646 -7.423838
1305031525.198710 2.586369 7.244229 -7.232255
1305031525.199671 2.586369 7.244229 -7.232255
1305031525.203318 2.694135 7.244229 -6.753297
1305031525.204450 2.694135 7.244229 -6.753297
1305031525.205738 2.694135 7.244229 -6.753297
1305031525.206723 2.694135 7.244229 -6.753297
1305031525.209859 2.789926 7.435812 -7.040672
1305031525.210864 2.789926 7.435812 -7.040672
1305031525.214424 2.981509 7.579499 -7.040672
1305031525.215415 2.981509 7.579499 -7.040672
1305031525.218670 2.981509 7.723186 -7.040672
1305031525.219680 2.981509 7.723186 -7.040672
1305031525.223305 3.125196 7.818977 -7.136463
1305031525.224302 3.125196 7.818977 -7.136463
1305031525.225570 3.125196 7.818977 -7.136463
1305031525.226570 3.125196 7.818977 -7.136463
1305031525.229836 3.125196 7.723186 -7.232255
1305031525.230839 3.125196 7.723186 -7.232255
1305031525.234464 3.161118 7.615421 -7.375942
1305031525.235448 3.161118 7.615421 -7.375942
1305031525.238712 3.173092 7.531603 -7.232255
1305031525.239812 3.173092 7.531603 -7.232255
1305031525.243325 3.173092 7.256203 -7.328046
1305031525.244426 3.173092 7.256203 -7.328046
1305031525.245669 3.173092 7.256203 -7.328046
1305031525.246701 3.173092 7.256203 -7.328046
1305031525.249816 3.161118 7.148437 -7.423838
1305031525.250796 3.161118 7.148437 -7.423838
1305031525.254312 3.161118 6.956854 -7.375942
1305031525.255471 3.161118 6.956854 -7.375942
1305031525.258698 3.161118 6.885011 -7.423838
1305031525.259714 3.161118 6.885011 -7.423838
1305031525.260962 3.161118 6.885011 -7.423838
1305031525.262197 3.161118 6.885011 -7.423838
1305031525.265586 3.161118 7.052646 -7.423838
1305031525.266545 3.161118 7.052646 -7.423838
1305031525.269808 3.161118 6.956854 -7.423838
1305031525.270835 3.161118 6.956854 -7.423838
1305031525.274466 3.161118 6.861063 -7.615421
1305031525.275471 3.161118 6.861063 -7.615421
1305031525.278835 3.161118 7.052646 -7.423838
1305031525.279813 3.161118 7.052646 -7.423838
1305031525.283415 3.161118 7.148437 -7.615421
1305031525.284420 3.161118 7.148437 -7.615421
1305031525.285665 3.161118 7.148437 -7.615421
1305031525.286659 3.161118 7.148437 -7.615421
1305031525.289808 2.873744 7.340020 -7.232255
1305031525.290818 2.873744 7.340020 -7.232255
1305031525.294422 2.981509 7.292124 -7.040672
1305031525.295586 2.981509 7.292124 -7.040672
1305031525.298710 3.077300 7.435812 -7.040672
1305031525.299715 3.077300 7.435812 -7.040672
1305031525.303336 3.173092 7.244229 -7.016724
1305031525.304302 3.173092 7.244229 -7.016724
1305031525.305595 3.173092 7.244229 -7.016724
1305031525.306569 3.173092 7.244229 -7.016724
1305031525.309807 3.173092 7.292124 -6.645532
1305031525.310859 3.173092 7.292124 -6.645532
1305031525.314420 3.352701 7.244229 -6.465923
1305031525.315422 3.352701 7.244229 -6.465923
1305031525.318698 3.352701 7.244229 -6.657506
1305031525.319700 3.352701 7.244229 -6.657506
1305031525.323306 3.544284 7.244229 -6.657506
1305031525.324301 3.544284 7.244229 -6.657506
1305031525.325568 3.544284 7.244229 -6.657506
1305031525.326571 3.544284 7.244229 -6.657506
1305031525.329787 3.640075 6.956854 -6.633558
1305031525.330820 3.640075 6.956854 -6.633558
1305031525.334462 3.544284 6.861063 -6.681454
1305031525.335476 3.544284 6.861063 -6.681454
1305031525.338695 3.640075 6.669480 -6.645532
1305031525.339814 3.640075 6.669480 -6.645532
1305031525.343465 3.592179 6.477897 -6.657506
1305031525.344432 3.592179 6.477897 -6.657506
1305031525.345672 3.592179 6.477897 -6.657506
1305031525.346669 3.592179 6.477897 -6.657506
1305031525.349831 3.544284 6.286314 -7.040672
1305031525.350951 3.544284 6.286314 -7.040672
1305031525.354421 3.352701 6.286314 -7.136463
1305031525.355545 3.352701 6.286314 -7.136463
1305031525.358719 3.161118 6.286314 -7.040672
1305031525.359834 3.161118 6.286314 -7.040672
1305031525.363304 3.161118 6.382106 -6.992776
1305031525.364305 3.161118 6.382106 -6.992776
1305031525.365579 3.161118 6.382106 -6.992776
1305031525.366546 3.161118 6.382106 -6.992776
1305031525.369853 3.149144 6.382106 -6.849089
1305031525.370866 3.149144 6.382106 -6.849089
1305031525.374467 2.981509 6.477897 -6.705402
1305031525.375490 2.981509 6.477897 -6.705402
1305031525.378719 3.161118 6.669480 -6.849089
1305031525.379696 3.161118 6.669480 -6.849089
1305031525.383415 3.077300 6.861063 -6.322236
1305031525.384419 3.077300 6.861063 -6.322236
1305031525.385668 3.077300 6.861063 -6.322236
1305031525.386667 3.077300 6.861063 -6.322236
1305031525.389801 2.825848 7.052646 -6.274340
1305031525.390848 2.825848 7.052646 -6.274340
1305031525.394478 2.825848 7.052646 -6.082757
1305031525.395446 2.825848 7.052646 -6.082757
1305031525.398715 2.825848 7.148437 -6.082757
1305031525.399758 2.825848 7.148437 -6.082757
1305031525.403363 2.789926 7.148437 -5.867226
1305031525.404299 2.789926 7.148437 -5.867226
1305031525.405555 2.789926 7.148437 -5.867226
1305031525.406710 2.789926 7.148437 -5.867226
1305031525.409827 2.801900 7.196333 -5.699591
1305031525.410820 2.801900 7.196333 -5.699591
1305031525.414424 2.789926 7.052646 -5.699591
1305031525.415419 2.789926 7.052646 -5.699591
1305031525.418675 2.789926 7.148437 -5.603800
1305031525.419750 2.789926 7.148437 -5.603800
1305031525.423359 2.981509 7.052646 -5.555904
1305031525.424303 2.981509 7.052646 -5.555904
1305031525.425567 2.981509 7.052646 -5.555904
1305031525.426571 2.981509 7.052646 -5.555904
1305031525.429827 2.825848 7.052646 -5.316426
1305031525.430820 2.825848 7.052646 -5.316426
1305031525.434491 2.777952 7.052646 -5.699591
1305031525.435446 2.777952 7.052646 -5.699591
1305031525.438694 2.777952 7.052646 -5.699591
1305031525.439711 2.777952 7.052646 -5.699591
1305031525.443322 2.442682 7.244229 -5.843279
1305031525.444302 2.442682 7.244229 -5.843279
1305031525.445550 2.442682 7.244229 -5.843279
1305031525.446671 2.442682 7.244229 -5.843279
1305031525.449823 2.586369 7.244229 -6.250392
1305031525.450795 2.586369 7.244229 -6.250392
1305031525.454421 2.406760 7.292124 -6.274340
1305031525.455612 2.406760 7.292124 -6.274340
1305031525.458741 2.490578 7.435812 -6.370132
1305031525.459742 2.490578 7.435812 -6.370132
1305031525.463291 2.586369 7.531603 -6.322236
1305031525.464301 2.586369 7.531603 -6.322236
1305031525.465584 2.586369 7.531603 -6.322236
1305031525.466572 2.586369 7.531603 -6.322236
1305031525.469835 2.765978 7.268176 -6.609610
1305031525.471004 2.765978 7.268176 -6.609610
1305031525.474444 2.789926 7.244229 -6.657506
1305031525.475455 2.789926 7.244229 -6.657506
1305031525.478694 2.789926 7.340020 -6.286314
1305031525.479808 2.789926 7.340020 -6.286314
1305031525.483303 3.125196 7.052646 -6.465923
1305031525.484423 3.125196 7.052646 -6.465923
1305031525.485674 3.125196 7.052646 -6.465923
1305031525.486670 3.125196 7.052646 -6.465923
1305031525.489805 3.161118 6.861063 -5.986966
1305031525.490874 3.161118 6.861063 -5.986966
1305031525.494464 3.256909 6.669480 -6.082757
1305031525.495444 3.256909 6.669480 -6.082757
1305031525.498739 3.352701 6.669480 -5.939070
1305031525.499809 3.352701 6.669480 -5.939070
1305031525.503464 3.352701 6.477897 -5.891174
1305031525.504447 3.352701 6.477897 -5.891174
1305031525.505677 3.352701 6.477897 -5.891174
1305031525.506710 3.352701 6.477897 -5.891174
1305031525.509803 3.544284 6.286314 -5.699591
1305031525.510848 3.544284 6.286314 -5.699591
1305031525.514421 3.544284 6.286314 -5.508009
1305031525.515419 3.544284 6.286314 -5.508009
1305031525.518699 3.747841 6.094731 -5.460113
1305031525.519702 3.747841 6.094731 -5.460113
1305031525.523333 3.927450 6.142627 -5.148791
1305031525.524445 3.927450 6.142627 -5.148791
1305031525.525712 3.927450 6.142627 -5.148791
1305031525.526669 3.927450 6.142627 -5.148791
1305031525.529805 3.951397 6.382106 -5.136817
1305031525.530821 3.951397 6.382106 -5.136817
1305031525.534499 4.023241 6.382106 -5.220634
1305031525.535473 4.023241 6.382106 -5.220634
1305031525.538757 4.119032 6.382106 -5.460113
1305031525.539813 4.119032 6.382106 -5.460113
1305031525.543369 4.023241 6.286314 -5.460113
1305031525.544300 4.023241 6.286314 -5.460113
1305031525.545547 4.023241 6.286314 -5.460113
1305031525.546547 4.023241 6.286314 -5.460113
1305031525.549798 3.927450 6.430001 -5.603800
1305031525.550799 3.927450 6.430001 -5.603800
1305031525.554465 3.927450 6.286314 -5.699591
1305031525.555465 3.927450 6.286314 -5.699591
1305031525.558697 3.927450 6.286314 -5.508009
1305031525.559797 3.927450 6.286314 -5.508009
1305031525.563317 3.843632 6.382106 -5.484061
1305031525.564422 3.843632 6.382106 -5.484061
1305031525.565720 3.843632 6.382106 -5.484061
1305031525.566714 3.843632 6.382106 -5.484061
1305031525.569813 3.927450 6.094731 -5.519982
1305031525.570874 3.927450 6.094731 -5.519982
1305031525.574465 3.927450 6.094731 -5.460113
1305031525.575466 3.927450 6.094731 -5.460113
1305031525.578711 3.843632 6.142627 -5.412217
1305031525.579726 3.843632 6.142627 -5.412217
1305031525.583298 3.927450 6.094731 -5.316426
1305031525.584299 3.927450 6.094731 -5.316426
1305031525.585296 3.927450 6.094731 -5.316426
1305031525.588725 3.891528 6.094731 -5.124843
1305031525.589715 3.891528 6.094731 -5.124843
1305031525.593325 3.747841 5.998940 -5.412217
1305031525.594348 3.747841 5.998940 -5.412217
1305031525.595572 3.747841 5.998940 -5.412217
1305031525.596569 3.747841 5.998940 -5.412217
1305031525.599711 3.747841 5.903148 -5.412217
1305031525.600836 3.747841 5.903148 -5.412217
1305031525.604299 3.640075 5.998940 -5.484061
1305031525.605308 3.640075 5.998940 -5.484061
1305031525.608598 3.544284 6.094731 -5.603800
1305031525.609591 3.544284 6.094731 -5.603800
1305031525.610844 3.544284 6.094731 -5.603800
1305031525.611836 3.544284 6.094731 -5.603800
1305031525.615432 3.352701 6.286314 -6.082757
1305031525.616451 3.352701 6.286314 -6.082757
1305031525.619831 3.173092 6.477897 -6.226444
1305031525.620840 3.173092 6.477897 -6.226444
1305031525.624454 3.256909 6.669480 -6.370132
1305031525.625446 3.256909 6.669480 -6.370132
1305031525.628699 3.209014 6.837115 -6.609610
1305031525.629816 3.209014 6.837115 -6.609610
1305031525.633360 3.352701 7.052646 -6.561715
1305031525.634305 3.352701 7.052646 -6.561715
1305031525.635573 3.352701 7.052646 -6.561715
1305031525.636587 3.352701 7.052646 -6.561715
1305031525.639817 3.209014 7.244229 -6.561715
1305031525.640847 3.209014 7.244229 -6.561715
1305031525.644434 3.256909 7.244229 -6.849089
1305031525.645417 3.256909 7.244229 -6.849089
1305031525.648668 3.256909 7.435812 -6.944880
1305031525.649667 3.256909 7.435812 -6.944880
1305031525.653286 3.161118 7.627394 -6.849089
1305031525.654306 3.161118 7.627394 -6.849089
1305031525.655589 3.161118 7.627394 -6.849089
1305031525.656571 3.161118 7.627394 -6.849089
1305031525.659843 3.161118 7.651342 -7.040672
1305031525.660834 3.161118 7.651342 -7.040672
1305031525.664303 3.185066 7.531603 -7.040672
1305031525.665444 3.185066 7.531603 -7.040672
1305031525.668741 3.173092 7.627394 -7.040672
1305031525.669739 3.173092 7.627394 -7.040672
1305031525.673467 3.173092 7.627394 -7.328046
1305031525.674476 3.173092 7.627394 -7.328046
1305031525.675713 3.173092 7.627394 -7.328046
1305031525.676712 3.173092 7.627394 -7.328046
1305031525.679816 3.173092 7.531603 -7.423838
1305031525.680797 3.173092 7.531603 -7.423838
1305031525.684297 3.161118 7.531603 -7.423838
1305031525.685421 3.161118 7.531603 -7.423838
1305031525.688577 3.161118 7.531603 -7.232255
1305031525.689741 3.161118 7.531603 -7.232255
1305031525.690998 3.161118 7.531603 -7.232255
1305031525.692300 3.161118 7.531603 -7.232255
1305031525.695582 3.161118 7.244229 -7.328046
1305031525.696571 3.161118 7.244229 -7.328046
1305031525.699794 2.981509 7.244229 -7.040672
1305031525.700838 2.981509 7.244229 -7.040672
1305031525.704300 2.981509 7.268176 -7.040672
1305031525.705464 2.981509 7.268176 -7.040672
1305031525.708710 2.873744 7.340020 -6.944880
1305031525.709707 2.873744 7.340020 -6.944880
1305031525.713286 2.789926 7.579499 -6.657506
1305031525.714296 2.789926 7.579499 -6.657506
1305031525.715545 2.789926 7.579499 -6.657506
1305031525.716576 2.789926 7.579499 -6.657506
1305031525.719829 2.586369 7.627394 -6.286314
1305031525.720839 2.586369 7.627394 -6.286314
1305031525.724449 2.586369 7.818977 -6.178549
1305031525.725585 2.586369 7.818977 -6.178549
1305031525.728714 2.694135 7.818977 -5.891174
1305031525.729736 2.694135 7.818977 -5.891174
1305031525.733355 2.742030 7.818977 -5.795383
1305031525.734345 2.742030 7.818977 -5.795383
1305031525.735590 2.742030 7.818977 -5.795383
1305031525.736587 2.742030 7.818977 -5.795383
1305031525.739799 2.586369 8.106352 -5.699591
1305031525.740837 2.586369 8.106352 -5.699591
1305031525.744305 2.789926 8.202143 -5.795383
1305031525.745454 2.789926 8.202143 -5.795383
1305031525.748678 2.789926 8.022534 -5.915122
1305031525.749727 2.789926 8.022534 -5.915122
1305031525.753309 2.789926 8.202143 -5.903148
1305031525.754464 2.789926 8.202143 -5.903148
1305031525.755571 2.789926 8.202143 -5.903148
1305031525.756712 2.789926 8.202143 -5.903148
1305031525.759831 2.694135 7.914769 -6.082757
1305031525.760827 2.694135 7.914769 -6.082757
1305031525.764445 2.777952 7.627394 -6.286314
1305031525.765584 2.777952 7.627394 -6.286314
1305031525.768713 2.586369 7.435812 -6.226444
1305031525.769736 2.586369 7.435812 -6.226444
1305031525.773312 2.490578 7.244229 -6.274340
1305031525.774299 2.490578 7.244229 -6.274340
1305031525.775552 2.490578 7.244229 -6.274340
1305031525.776553 2.490578 7.244229 -6.274340
1305031525.779822 2.442682 7.052646 -6.322236
1305031525.780806 2.442682 7.052646 -6.322236
1305031525.784302 2.358865 7.052646 -6.370132
1305031525.785423 2.358865 7.052646 -6.370132
1305031525.788712 2.586369 6.908959 -6.274340
1305031525.789712 2.586369 6.908959 -6.274340
1305031525.793447 2.586369 7.052646 -5.986966
1305031525.794455 2.586369 7.052646 -5.986966
1305031525.795673 2.586369 7.052646 -5.986966
1305031525.796696 2.586369 7.052646 -5.986966
1305031525.799727 2.789926 7.244229 -6.082757
1305031525.800837 2.789926 7.244229 -6.082757
1305031525.804300 2.789926 7.340020 -6.178549
1305031525.805297 2.789926 7.340020 -6.178549
1305031525.808696 2.789926 7.579499 -5.891174
1305031525.809727 2.789926 7.579499 -5.891174
1305031525.813298 2.981509 7.531603 -5.699591
1305031525.814295 2.981509 7.531603 -5.699591
1305031525.815575 2.981509 7.531603 -5.699591
1305031525.816541 2.981509 7.531603 -5.699591
1305031525.819838 2.873744 7.435812 -5.508009
1305031525.820841 2.873744 7.435812 -5.508009
1305031525.824455 2.825848 7.340020 -5.412217
1305031525.825458 2.825848 7.340020 -5.412217
1305031525.828713 2.981509 7.148437 -5.148791
1305031525.829709 2.981509 7.148437 -5.148791
1305031525.833287 2.825848 7.052646 -5.124843
1305031525.834314 2.825848 7.052646 -5.124843
1305031525.835574 2.825848 7.052646 -5.124843
1305031525.836589 2.825848 7.052646 -5.124843
1305031525.839814 2.801900 6.956854 -5.029051
1305031525.840841 2.801900 6.956854 -5.029051
1305031525.844301 2.789926 6.956854 -5.076947
1305031525.845426 2.789926 6.956854 -5.076947
1305031525.848682 2.801900 6.861063 -5.124843
1305031525.849671 2.801900 6.861063 -5.124843
1305031525.853289 2.789926 6.861063 -5.124843
1305031525.854297 2.789926 6.861063 -5.124843
1305031525.855590 2.789926 6.861063 -5.124843
1305031525.856553 2.789926 6.861063 -5.124843
1305031525.859818 2.789926 6.861063 -4.741677
1305031525.860837 2.789926 6.861063 -4.741677
1305031525.864444 2.777952 6.669480 -4.741677
1305031525.865445 2.777952 6.669480 -4.741677
1305031525.868710 2.789926 6.765271 -4.765625
1305031525.869759 2.789926 6.765271 -4.765625
1305031525.873295 2.789926 6.837115 -4.789573
1305031525.874299 2.789926 6.837115 -4.789573
1305031525.875587 2.789926 6.837115 -4.789573
1305031525.876585 2.789926 6.837115 -4.789573
1305031525.879811 2.777952 6.669480 -5.076947
1305031525.880795 2.777952 6.669480 -5.076947
1305031525.884424 2.789926 6.525793 -5.100895
1305031525.885416 2.789926 6.525793 -5.100895
1305031525.888681 2.789926 6.669480 -5.124843
1305031525.889730 2.789926 6.669480 -5.124843
1305031525.893427 2.873744 6.477897 -5.508009
1305031525.894445 2.873744 6.477897 -5.508009
1305031525.895712 2.873744 6.477897 -5.508009
1305031525.896711 2.873744 6.477897 -5.508009
1305031525.899699 2.981509 6.477897 -5.519982
1305031525.900866 2.981509 6.477897 -5.519982
1305031525.904299 3.077300 6.477897 -5.508009
1305031525.905475 3.077300 6.477897 -5.508009
1305031525.908572 3.125196 6.477897 -5.603800
1305031525.909763 3.125196 6.477897 -5.603800
1305031525.911007 3.125196 6.477897 -5.603800
1305031525.912178 3.125196 6.477897 -5.603800
1305031525.915555 3.161118 6.525793 -5.555904
1305031525.916550 3.161118 6.525793 -5.555904
1305031525.919735 3.161118 6.573688 -5.508009
1305031525.920850 3.161118 6.573688 -5.508009
1305031525.924301 3.161118 6.765271 -5.603800
1305031525.925470 3.161118 6.765271 -5.603800
1305031525.928696 3.173092 6.813167 -5.699591
1305031525.929710 3.173092 6.813167 -5.699591
1305031525.933305 3.161118 6.861063 -5.891174
1305031525.934309 3.161118 6.861063 -5.891174
1305031525.935592 3.161118 6.861063 -5.891174
1305031525.936586 3.161118 6.861063 -5.891174
1305031525.939669 3.077300 6.908959 -5.891174
1305031525.940839 3.077300 6.908959 -5.891174
1305031525.944423 2.801900 6.849089 -6.226444
1305031525.945416 2.801900 6.849089 -6.226444
1305031525.948671 2.873744 6.861063 -6.370132
1305031525.949666 2.873744 6.861063 -6.370132
1305031525.953299 2.694135 6.861063 -6.465923
1305031525.954296 2.694135 6.861063 -6.465923
1305031525.955549 2.694135 6.861063 -6.465923
1305031525.956589 2.694135 6.861063 -6.465923
1305031525.959836 2.586369 6.765271 -7.040672
1305031525.960879 2.586369 6.765271 -7.040672
1305031525.964444 2.406760 6.669480 -7.232255
1305031525.965582 2.406760 6.669480 -7.232255
1305031525.968734 2.406760 6.765271 -7.136463
1305031525.969724 2.406760 6.765271 -7.136463
1305031525.973325 2.406760 6.861063 -7.064620
1305031525.974298 2.406760 6.861063 -7.064620
1305031525.975589 2.406760 6.861063 -7.064620
1305031525.976569 2.406760 6.861063 -7.064620
1305031525.979819 2.586369 6.861063 -7.040672
1305031525.980800 2.586369 6.861063 -7.040672
1305031525.984428 2.490578 6.885011 -6.753297
1305031525.985415 2.490578 6.885011 -6.753297
1305031525.988706 2.586369 6.861063 -6.609610
1305031525.989699 2.586369 6.861063 -6.609610
1305031525.993432 2.694135 7.052646 -6.274340
1305031525.994457 2.694135 7.052646 -6.274340
1305031525.995741 2.694135 7.052646 -6.274340
1305031525.996713 2.694135 7.052646 -6.274340
1305031525.999820 2.694135 7.148437 -5.939070
1305031526.000821 2.694135 7.148437 -5.939070
1305031526.004450 2.789926 7.232255 -5.891174
1305031526.005442 2.789926 7.232255 -5.891174
1305031526.008666 2.873744 7.244229 -5.867226
1305031526.009693 2.873744 7.244229 -5.867226
1305031526.013288 2.586369 7.244229 -5.795383
1305031526.014289 2.586369 7.244229 -5.795383
1305031526.015547 2.586369 7.244229 -5.795383
1305031526.016546 2.586369 7.244229 -5.795383
1305031526.019838 2.586369 7.268176 -6.178549
1305031526.020863 2.586369 7.268176 -6.178549
1305031526.024429 2.586369 7.435812 -6.274340
1305031526.025568 2.586369 7.435812 -6.274340
1305031526.028719 2.490578 7.435812 -6.561715
1305031526.029719 2.490578 7.435812 -6.561715
1305031526.033288 2.406760 7.435812 -6.465923
1305031526.034303 2.406760 7.435812 -6.465923
1305031526.035598 2.406760 7.435812 -6.465923
1305031526.036616 2.406760 7.435812 -6.465923
1305031526.039675 2.406760 7.531603 -6.657506
1305031526.040874 2.406760 7.531603 -6.657506
1305031526.044303 2.406760 7.531603 -6.753297
1305031526.045461 2.406760 7.531603 -6.753297
1305031526.048672 2.215177 7.435812 -6.992776
1305031526.049668 2.215177 7.435812 -6.992776
1305031526.053298 2.358865 7.435812 -6.849089
1305031526.054413 2.358865 7.435812 -6.849089
1305031526.055713 2.358865 7.435812 -6.849089
1305031526.056711 2.358865 7.435812 -6.849089
1305031526.059839 2.059516 7.435812 -6.657506
1305031526.060848 2.059516 7.435812 -6.657506
1305031526.064444 2.215177 7.244229 -6.669480
1305031526.065444 2.215177 7.244229 -6.669480
1305031526.068716 2.107412 7.244229 -6.274340
1305031526.069836 2.107412 7.244229 -6.274340
1305031526.073462 2.215177 7.244229 -5.843279
1305031526.074457 2.215177 7.244229 -5.843279
1305031526.075711 2.215177 7.244229 -5.843279
1305031526.076711 2.215177 7.244229 -5.843279
1305031526.079807 2.310969 7.244229 -5.220634
1305031526.080802 2.310969 7.244229 -5.220634
1305031526.084424 2.394786 7.148437 -4.789573
1305031526.085539 2.394786 7.148437 -4.789573
1305031526.088718 2.406760 7.232255 -4.717729
1305031526.089712 2.406760 7.232255 -4.717729
1305031526.093323 2.694135 7.244229 -4.789573
1305031526.094300 2.694135 7.244229 -4.789573
1305031526.095589 2.694135 7.244229 -4.789573
1305031526.096549 2.694135 7.244229 -4.789573
1305031526.099811 2.358865 7.435812 -5.172738
1305031526.100837 2.358865 7.435812 -5.172738
1305031526.104446 2.011621 7.579499 -5.316426
1305031526.105439 2.011621 7.579499 -5.316426
1305031526.108850 2.023594 7.531603 -5.699591
1305031526.109839 2.023594 7.531603 -5.699591
1305031526.113425 2.011621 7.627394 -6.082757
1305031526.114420 2.011621 7.627394 -6.082757
1305031526.115674 2.011621 7.627394 -6.082757
1305031526.116701 2.011621 7.627394 -6.082757
1305031526.119842 1.820038 7.627394 -6.465923
1305031526.120840 1.820038 7.627394 -6.465923
1305031526.124453 1.975699 7.675290 -6.561715
1305031526.125458 1.975699 7.675290 -6.561715
1305031526.128713 1.820038 7.627394 -6.609610
1305031526.129713 1.820038 7.627394 -6.609610
1305031526.133318 1.820038 7.531603 -6.465923
1305031526.134312 1.820038 7.531603 -6.465923
1305031526.135572 1.820038 7.531603 -6.465923
1305031526.136591 1.820038 7.531603 -6.465923
1305031526.139840 1.820038 7.292124 -6.274340
1305031526.140836 1.820038 7.292124 -6.274340
1305031526.144454 1.820038 7.244229 -5.986966
1305031526.145491 1.820038 7.244229 -5.986966
1305031526.148556 1.927803 7.244229 -5.891174
1305031526.149667 1.927803 7.244229 -5.891174
1305031526.153295 1.820038 7.268176 -5.603800
1305031526.154291 1.820038 7.268176 -5.603800
1305031526.155551 1.820038 7.268176 -5.603800
1305031526.156569 1.820038 7.268176 -5.603800
1305031526.159836 2.011621 7.268176 -5.124843
1305031526.160887 2.011621 7.268176 -5.124843
1305031526.164451 2.011621 7.244229 -4.741677
1305031526.165611 2.011621 7.244229 -4.741677
1305031526.168680 1.999647 7.148437 -4.550094
1305031526.169724 1.999647 7.148437 -4.550094
1305031526.173311 1.820038 7.196333 -4.454303
1305031526.174301 1.820038 7.196333 -4.454303
1305031526.175593 1.820038 7.196333 -4.454303
1305031526.176570 1.820038 7.196333 -4.454303
1305031526.179808 1.640429 6.861063 -4.741677
1305031526.180785 1.640429 6.861063 -4.741677
1305031526.184455 1.640429 6.765271 -4.837468
1305031526.185417 1.640429 6.765271 -4.837468
1305031526.188674 1.640429 6.861063 -5.316426
1305031526.189814 1.640429 6.861063 -5.316426
1305031526.193456 1.640429 6.861063 -5.795383
1305031526.194444 1.640429 6.861063 -5.795383
1305031526.195713 1.640429 6.861063 -5.795383
1305031526.196698 1.640429 6.861063 -5.795383
1305031526.200300 1.592533 7.052646 -6.465923
1305031526.201472 1.592533 7.052646 -6.465923
1305031526.204709 1.640429 7.052646 -6.849089
1305031526.205718 1.640429 7.052646 -6.849089
1305031526.208991 1.592533 7.052646 -6.849089
1305031526.210244 1.592533 7.052646 -6.849089
1305031526.213547 1.448846 7.148437 -7.040672
1305031526.214547 1.448846 7.148437 -7.040672
1305031526.215788 1.448846 7.148437 -7.040672
1305031526.216828 1.448846 7.148437 -7.040672
1305031526.220432 1.628455 6.908959 -7.232255
1305031526.221571 1.628455 6.908959 -7.232255
1305031526.224838 1.640429 7.052646 -7.040672
1305031526.225848 1.640429 7.052646 -7.040672
1305031526.229494 1.592533 7.052646 -6.753297
1305031526.230588 1.592533 7.052646 -6.753297
1305031526.233692 1.448846 7.148437 -6.370132
1305031526.234846 1.448846 7.148437 -6.370132
1305031526.238455 1.640429 7.148437 -5.891174
1305031526.239463 1.640429 7.148437 -5.891174
1305031526.240724 1.640429 7.148437 -5.891174
1305031526.241837 1.640429 7.148437 -5.891174
1305031526.244826 1.640429 7.244229 -5.220634
1305031526.245961 1.640429 7.244229 -5.220634
1305031526.249578 1.820038 7.435812 -4.933260
1305031526.250546 1.820038 7.435812 -4.933260
1305031526.253676 2.011621 7.627394 -4.645885
1305031526.254672 2.011621 7.627394 -4.645885
1305031526.258455 2.011621 7.818977 -4.358511
1305031526.259476 2.011621 7.818977 -4.358511
1305031526.260714 2.011621 7.818977 -4.358511
1305031526.261694 2.011621 7.818977 -4.358511
1305031526.264796 2.011621 7.818977 -4.454303
1305031526.265822 2.011621 7.818977 -4.454303
1305031526.269494 1.676350 7.651342 -4.693781
1305031526.270488 1.676350 7.651342 -4.693781
1305031526.273715 1.544637 7.627394 -4.789573
1305031526.274721 1.544637 7.627394 -4.789573
1305031526.278289 1.341080 7.435812 -5.172738
1305031526.279461 1.341080 7.435812 -5.172738
1305031526.280553 1.341080 7.435812 -5.172738
1305031526.281669 1.341080 7.435812 -5.172738
1305031526.284799 1.257263 6.861063 -5.699591
1305031526.285924 1.257263 6.861063 -5.699591
1305031526.289716 1.245289 6.525793 -6.178549
1305031526.290712 1.245289 6.525793 -6.178549
1305031526.293829 1.257263 6.286314 -6.465923
1305031526.294821 1.257263 6.286314 -6.465923
1305031526.298462 1.448846 5.903148 -6.944880
1305031526.299429 1.448846 5.903148 -6.944880
1305031526.300712 1.448846 5.903148 -6.944880
1305031526.301833 1.448846 5.903148 -6.944880
1305031526.305462 1.269237 5.735513 -7.423838
1305031526.306458 1.269237 5.735513 -7.423838
1305031526.309696 1.293185 5.903148 -7.423838
1305031526.310734 1.293185 5.903148 -7.423838
1305031526.314296 1.269237 6.190523 -7.615421
1305031526.315295 1.269237 6.190523 -7.615421
1305031526.318670 1.544637 6.573688 -7.423838
1305031526.319722 1.544637 6.573688 -7.423838
1305031526.323308 1.820038 6.908959 -7.375942
1305031526.324306 1.820038 6.908959 -7.375942
1305031526.325710 1.820038 6.908959 -7.375942
1305031526.326714 1.820038 6.908959 -7.375942
1305031526.329806 2.011621 7.244229 -7.040672
1305031526.330819 2.011621 7.244229 -7.040672
1305031526.334587 2.107412 7.627394 -6.370132
1305031526.335619 2.107412 7.627394 -6.370132
1305031526.338725 2.215177 7.627394 -6.178549
1305031526.339811 2.215177 7.627394 -6.178549
1305031526.343467 2.406760 7.818977 -6.082757
1305031526.344445 2.406760 7.818977 -6.082757
1305031526.345761 2.406760 7.818977 -6.082757
1305031526.346694 2.406760 7.818977 -6.082757
1305031526.349795 2.442682 7.914769 -5.699591
1305031526.350792 2.442682 7.914769 -5.699591
1305031526.354417 2.406760 7.962665 -5.699591
1305031526.355425 2.406760 7.962665 -5.699591
1305031526.358719 2.406760 8.010560 -5.508009
1305031526.359727 2.406760 8.010560 -5.508009
1305031526.363306 2.382812 7.914769 -5.460113
1305031526.364436 2.382812 7.914769 -5.460113
1305031526.365443 2.382812 7.914769 -5.460113
1305031526.368705 2.035568 7.962665 -5.460113
1305031526.369725 2.035568 7.962665 -5.460113
1305031526.373297 1.975699 7.818977 -5.220634
1305031526.374300 1.975699 7.818977 -5.220634
1305031526.375558 1.975699 7.818977 -5.220634
1305031526.376552 1.975699 7.818977 -5.220634
1305031526.379794 2.107412 7.627394 -5.316426
1305031526.380802 2.107412 7.627394 -5.316426
1305031526.384426 1.820038 7.639368 -5.124843
1305031526.385417 1.820038 7.639368 -5.124843
1305031526.388716 1.820038 7.531603 -5.124843
1305031526.389694 1.820038 7.531603 -5.124843
1305031526.393282 1.640429 7.435812 -5.100895
1305031526.394299 1.640429 7.435812 -5.100895
1305031526.395571 1.640429 7.435812 -5.100895
1305031526.396705 1.640429 7.435812 -5.100895
1305031526.399806 1.628455 7.244229 -5.412217
1305031526.400816 1.628455 7.244229 -5.412217
1305031526.404436 1.724246 7.148437 -5.508009
1305031526.405458 1.724246 7.148437 -5.508009
1305031526.408696 1.724246 6.956854 -5.699591
1305031526.409796 1.724246 6.956854 -5.699591
1305031526.413423 1.820038 6.956854 -5.891174
1305031526.414421 1.820038 6.956854 -5.891174
1305031526.415671 1.820038 6.956854 -5.891174
1305031526.416670 1.820038 6.956854 -5.891174
1305031526.419794 2.011621 7.052646 -5.508009
1305031526.420825 2.011621 7.052646 -5.508009
1305031526.424453 2.215177 7.148437 -5.508009
1305031526.425442 2.215177 7.148437 -5.508009
1305031526.428713 2.310969 7.244229 -5.508009
1305031526.429696 2.310969 7.244229 -5.508009
1305031526.433464 2.215177 7.627394 -5.220634
1305031526.434453 2.215177 7.627394 -5.220634
1305031526.435692 2.215177 7.627394 -5.220634
1305031526.436690 2.215177 7.627394 -5.220634
1305031526.439810 2.490578 7.962665 -5.124843
1305031526.440880 2.490578 7.962665 -5.124843
1305031526.444305 2.586369 7.998586 -5.124843
1305031526.445472 2.586369 7.998586 -5.124843
1305031526.448545 2.765978 8.010560 -5.124843
1305031526.449691 2.765978 8.010560 -5.124843
1305031526.450963 2.765978 8.010560 -5.124843
1305031526.452302 2.765978 8.010560 -5.124843
1305031526.455588 2.490578 7.914769 -5.124843
1305031526.456553 2.490578 7.914769 -5.124843
1305031526.459804 2.490578 7.818977 -5.316426
1305031526.460890 2.490578 7.818977 -5.316426
1305031526.464435 2.406760 7.818977 -5.496035
1305031526.465432 2.406760 7.818977 -5.496035
1305031526.468759 2.107412 7.962665 -5.508009
1305031526.469704 2.107412 7.962665 -5.508009
1305031526.473325 2.011621 8.058456 -5.699591
1305031526.474298 2.011621 8.058456 -5.699591
1305031526.475626 2.011621 8.058456 -5.699591
1305031526.476552 2.011621 8.058456 -5.699591
1305031526.479697 2.011621 8.393726 -5.915122
1305031526.480679 2.011621 8.393726 -5.915122
1305031526.484283 2.011621 8.393726 -6.082757
1305031526.485417 2.011621 8.393726 -6.082757
1305031526.488685 1.820038 8.776892 -6.082757
1305031526.489685 1.820038 8.776892 -6.082757
1305031526.493301 1.820038 8.728996 -6.274340
1305031526.494292 1.820038 8.728996 -6.274340
1305031526.495715 1.820038 8.728996 -6.274340
1305031526.496712 1.820038 8.728996 -6.274340
1305031526.499703 1.676350 8.681100 -6.250392
1305031526.500821 1.676350 8.681100 -6.250392
1305031526.504444 1.820038 8.393726 -6.370132
1305031526.505450 1.820038 8.393726 -6.370132
1305031526.508674 1.820038 8.202143 -6.178549
1305031526.509715 1.820038 8.202143 -6.178549
1305031526.513295 2.011621 7.914769 -6.082757
1305031526.514287 2.011621 7.914769 -6.082757
1305031526.515543 2.011621 7.914769 -6.082757
1305031526.516544 2.011621 7.914769 -6.082757
1305031526.519676 1.975699 7.627394 -5.891174
1305031526.520840 1.975699 7.627394 -5.891174
1305031526.524440 2.059516 7.435812 -6.082757
1305031526.525584 2.059516 7.435812 -6.082757
1305031526.528694 2.107412 7.256203 -5.699591
1305031526.529696 2.107412 7.256203 -5.699591
1305031526.533299 2.394786 7.052646 -5.891174
1305031526.534297 2.394786 7.052646 -5.891174
1305031526.535575 2.394786 7.052646 -5.891174
1305031526.536711 2.394786 7.052646 -5.891174
1305031526.539798 2.394786 7.148437 -5.891174
1305031526.540900 2.394786 7.148437 -5.891174
1305031526.544435 2.394786 6.873037 -5.986966
1305031526.545590 2.394786 6.873037 -5.986966
1305031526.548693 2.059516 7.148437 -5.699591
1305031526.549793 2.059516 7.148437 -5.699591
1305031526.553409 2.215177 7.052646 -5.986966
1305031526.554414 2.215177 7.052646 -5.986966
1305031526.555678 2.215177 7.052646 -5.986966
1305031526.556715 2.215177 7.052646 -5.986966
1305031526.559683 2.011621 7.435812 -6.274340
1305031526.560840 2.011621 7.435812 -6.274340
1305031526.564297 2.011621 7.531603 -6.370132
1305031526.565411 2.011621 7.531603 -6.370132
1305031526.568694 2.011621 7.627394 -6.849089
1305031526.569695 2.011621 7.627394 -6.849089
1305031526.573572 1.820038 7.627394 -7.232255
1305031526.574426 1.820038 7.627394 -7.232255
1305031526.575358 1.820038 7.627394 -7.232255
1305031526.578853 1.820038 7.435812 -7.807003
1305031526.579789 1.820038 7.435812 -7.807003
1305031526.583370 1.820038 7.435812 -7.998586
1305031526.584366 1.820038 7.435812 -7.998586
1305031526.585690 1.820038 7.435812 -7.998586
1305031526.586679 1.820038 7.435812 -7.998586
1305031526.589803 1.820038 7.531603 -8.190169
1305031526.590828 1.820038 7.531603 -8.190169
1305031526.594463 1.820038 7.675290 -7.902795
1305031526.595428 1.820038 7.675290 -7.902795
1305031526.598697 1.927803 7.675290 -7.998586
1305031526.599694 1.927803 7.675290 -7.998586
1305031526.603288 2.011621 7.818977 -7.807003
1305031526.604328 2.011621 7.818977 -7.807003
1305031526.605613 2.011621 7.818977 -7.807003
1305031526.606585 2.011621 7.818977 -7.807003
1305031526.609798 2.107412 7.998586 -7.711212
1305031526.610805 2.107412 7.998586 -7.711212
1305031526.614437 2.310969 7.818977 -7.519629
1305031526.615436 2.310969 7.818977 -7.519629
1305031526.618695 2.310969 7.627394 -7.328046
1305031526.619687 2.310969 7.627394 -7.328046
1305031526.623318 2.215177 7.675290 -7.040672
1305031526.624301 2.215177 7.675290 -7.040672
1305031526.625557 2.215177 7.675290 -7.040672
1305031526.626713 2.215177 7.675290 -7.040672
1305031526.629814 2.107412 7.627394 -6.944880
1305031526.630807 2.107412 7.627394 -6.944880
1305031526.634449 2.215177 7.723186 -7.040672
1305031526.635445 2.215177 7.723186 -7.040672
1305031526.638693 2.215177 7.627394 -6.849089
1305031526.639682 2.215177 7.627394 -6.849089
1305031526.643296 2.011621 7.627394 -6.849089
1305031526.644290 2.011621 7.627394 -6.849089
1305031526.645548 2.011621 7.627394 -6.849089
1305031526.646559 2.011621 7.627394 -6.849089
1305031526.649688 1.724246 7.435812 -6.681454
1305031526.650803 1.724246 7.435812 -6.681454
1305031526.654437 1.820038 7.244229 -6.753297
1305031526.655424 1.820038 7.244229 -6.753297
1305031526.658691 1.927803 7.232255 -6.944880
1305031526.659659 1.927803 7.232255 -6.944880
1305031526.663306 1.724246 7.292124 -6.849089
1305031526.664300 1.724246 7.292124 -6.849089
1305031526.665563 1.724246 7.292124 -6.849089
1305031526.666554 1.724246 7.292124 -6.849089
1305031526.669851 1.820038 7.435812 -6.657506
1305031526.670963 1.820038 7.435812 -6.657506
1305031526.674432 2.011621 7.531603 -6.657506
1305031526.675426 2.011621 7.531603 -6.657506
1305031526.678677 2.107412 7.627394 -6.657506
1305031526.679685 2.107412 7.627394 -6.657506
1305031526.683302 1.820038 7.818977 -6.274340
1305031526.684304 1.820038 7.818977 -6.274340
1305031526.685686 1.820038 7.818977 -6.274340
1305031526.686674 1.820038 7.818977 -6.274340
1305031526.689796 2.215177 8.010560 -6.178549
1305031526.690803 2.215177 8.010560 -6.178549
1305031526.694447 2.059516 8.202143 -6.082757
1305031526.695417 2.059516 8.202143 -6.082757
1305031526.698702 1.975699 8.345830 -6.082757
1305031526.699680 1.975699 8.345830 -6.082757
1305031526.703306 2.011621 8.106352 -6.082757
1305031526.704303 2.011621 8.106352 -6.082757
1305031526.705585 2.011621 8.106352 -6.082757
1305031526.706600 2.011621 8.106352 -6.082757
1305031526.709796 1.820038 8.106352 -6.226444
1305031526.710799 1.820038 8.106352 -6.226444
1305031526.714437 1.820038 8.106352 -5.986966
1305031526.715433 1.820038 8.106352 -5.986966
1305031526.718681 1.640429 7.914769 -5.986966
1305031526.719667 1.640429 7.914769 -5.986966
1305031526.723320 1.544637 7.818977 -6.274340
1305031526.724300 1.544637 7.818977 -6.274340
1305031526.725559 1.544637 7.818977 -6.274340
1305031526.726662 1.544637 7.818977 -6.274340
1305031526.729856 1.616481 7.627394 -6.370132
1305031526.730813 1.616481 7.627394 -6.370132
1305031526.734474 1.448846 7.531603 -6.322236
1305031526.735461 1.448846 7.531603 -6.322236
1305031526.738711 1.616481 7.531603 -6.561715
1305031526.739675 1.616481 7.531603 -6.561715
1305031526.740810 1.616481 7.531603 -6.561715
1305031526.742295 1.616481 7.531603 -6.561715
1305031526.745520 1.448846 7.627394 -6.465923
1305031526.746592 1.448846 7.627394 -6.465923
1305031526.749759 1.257263 7.818977 -6.298288
1305031526.750743 1.257263 7.818977 -6.298288
1305031526.754387 1.628455 8.010560 -6.250392
1305031526.755375 1.628455 8.010560 -6.250392
1305031526.758688 1.640429 8.202143 -6.082757
1305031526.759683 1.640429 8.202143 -6.082757
1305031526.763445 1.592533 8.393726 -5.879200
1305031526.764441 1.592533 8.393726 -5.879200
1305031526.765686 1.592533 8.393726 -5.879200
1305031526.766686 1.592533 8.393726 -5.879200
1305031526.769855 1.640429 8.489518 -5.555904
1305031526.770853 1.640429 8.489518 -5.555904
1305031526.774423 1.724246 8.393726 -5.412217
1305031526.775415 1.724246 8.393726 -5.412217
1305031526.778675 1.820038 8.585309 -5.124843
1305031526.779799 1.820038 8.585309 -5.124843
1305031526.783298 1.820038 8.585309 -5.029051
1305031526.784300 1.820038 8.585309 -5.029051
1305031526.785550 1.820038 8.585309 -5.029051
1305031526.786670 1.820038 8.585309 -5.029051
1305031526.789818 1.640429 8.489518 -4.741677
1305031526.790801 1.640429 8.489518 -4.741677
1305031526.794444 1.724246 8.405700 -4.454303
1305031526.795418 1.724246 8.405700 -4.454303
1305031526.798697 1.628455 8.441622 -4.310615
1305031526.799683 1.628455 8.441622 -4.310615
1305031526.803299 1.448846 8.405700 -4.166928
1305031526.804294 1.448846 8.405700 -4.166928
1305031526.805554 1.448846 8.405700 -4.166928
1305031526.806711 1.448846 8.405700 -4.166928
1305031526.809790 1.257263 8.202143 -4.358511
1305031526.810795 1.257263 8.202143 -4.358511
1305031526.814432 1.053706 8.010560 -4.454303
1305031526.815425 1.053706 8.010560 -4.454303
1305031526.818683 0.826201 7.962665 -4.358511
1305031526.819670 0.826201 7.962665 -4.358511
1305031526.823308 0.862123 7.818977 -4.550094
1305031526.824293 0.862123 7.818977 -4.550094
1305031526.825558 0.862123 7.818977 -4.550094
1305031526.826666 0.862123 7.818977 -4.550094
1305031526.829821 0.478957 7.818977 -4.358511
1305031526.830811 0.478957 7.818977 -4.358511
1305031526.834432 0.478957 7.986612 -4.358511
1305031526.835450 0.478957 7.986612 -4.358511
1305031526.838712 0.478957 8.202143 -4.310615
1305031526.839660 0.478957 8.202143 -4.310615
1305031526.843297 0.191583 8.441622 -3.975345
1305031526.844304 0.191583 8.441622 -3.975345
1305031526.845540 0.191583 8.441622 -3.975345
1305031526.846674 0.191583 8.441622 -3.975345
1305031526.849829 0.478957 8.681100 -3.783762
1305031526.850802 0.478957 8.681100 -3.783762
1305031526.854444 0.478957 8.788866 -3.592179
1305031526.855412 0.478957 8.788866 -3.592179
1305031526.858687 0.478957 9.064266 -3.400597
1305031526.859684 0.478957 9.064266 -3.400597
1305031526.863313 0.490931 9.184006 -3.304805
1305031526.864298 0.490931 9.184006 -3.304805
1305031526.865685 0.490931 9.184006 -3.304805
1305031526.866682 0.490931 9.184006 -3.304805
1305031526.869819 0.682514 9.447432 -3.209014
1305031526.870857 0.682514 9.447432 -3.209014
1305031526.874426 0.682514 9.351641 -3.209014
1305031526.875424 0.682514 9.351641 -3.209014
1305031526.878677 0.682514 9.351641 -3.209014
1305031526.879668 0.682514 9.351641 -3.209014
1305031526.880950 0.682514 9.351641 -3.209014
1305031526.882309 0.682514 9.351641 -3.209014
1305031526.885569 0.778306 9.148084 -3.209014
1305031526.886537 0.778306 9.148084 -3.209014
1305031526.889801 0.574749 8.872683 -3.209014
1305031526.890804 0.574749 8.872683 -3.209014
1305031526.894449 0.478957 8.728996 -3.496388
1305031526.895431 0.478957 8.728996 -3.496388
1305031526.898687 0.478957 8.585309 -3.604153
1305031526.899685 0.478957 8.585309 -3.604153
1305031526.903305 0.287374 8.585309 -3.592179
1305031526.904301 0.287374 8.585309 -3.592179
1305031526.905585 0.287374 8.585309 -3.592179
1305031526.906585 0.287374 8.585309 -3.592179
1305031526.909840 0.107765 8.441622 -3.592179
1305031526.910791 0.107765 8.441622 -3.592179
1305031526.914294 0.287374 8.393726 -3.592179
1305031526.915303 0.287374 8.393726 -3.592179
1305031526.918699 0.095791 8.585309 -3.256909
1305031526.919699 0.095791 8.585309 -3.256909
1305031526.921282 0.095791 8.585309 -3.256909
1305031526.924456 -0.083818 8.752944 -3.400597
1305031526.925454 -0.083818 8.752944 -3.400597
1305031526.928706 -0.083818 8.824788 -3.209014
1305031526.929671 -0.083818 8.824788 -3.209014
1305031526.933280 -0.083818 8.681100 -3.209014
1305031526.934281 -0.083818 8.681100 -3.209014
1305031526.935570 -0.083818 8.681100 -3.209014
1305031526.936548 -0.083818 8.681100 -3.209014
1305031526.939792 -0.083818 8.776892 -2.825848
1305031526.940797 -0.083818 8.776892 -2.825848
1305031526.944437 -0.191583 8.872683 -2.825848
1305031526.945423 -0.191583 8.872683 -2.825848
1305031526.948694 0.095791 9.184006 -2.442682
1305031526.949803 0.095791 9.184006 -2.442682
1305031526.953295 0.095791 9.207953 -2.346891
1305031526.954294 0.095791 9.207953 -2.346891
1305031526.955540 0.095791 9.207953 -2.346891
1305031526.956553 0.095791 9.207953 -2.346891
1305031526.959734 0.143687 9.351641 -2.346891
1305031526.960678 0.143687 9.351641 -2.346891
1305031526.964316 0.107765 9.351641 -2.346891
1305031526.965278 0.107765 9.351641 -2.346891
1305031526.968569 0.191583 9.351641 -2.346891
1305031526.969631 0.191583 9.351641 -2.346891
1305031526.970856 0.191583 9.351641 -2.346891
1305031526.971771 0.191583 9.351641 -2.346891
1305031526.975432 0.083818 9.160058 -2.346891
1305031526.977948 0.083818 9.160058 -2.346891
1305031526.979688 0.107765 8.968475 -2.442682
1305031526.980735 0.107765 8.968475 -2.442682
1305031526.984311 -0.083818 8.824788 -2.466630
1305031526.985293 -0.083818 8.824788 -2.466630
1305031526.986289 -0.083818 8.824788 -2.466630
1305031526.989692 -0.191583 8.776892 -2.634265
1305031526.990680 -0.191583 8.776892 -2.634265
1305031526.994308 -0.275400 8.681100 -2.825848
1305031526.995433 -0.275400 8.681100 -2.825848
1305031526.998699 -0.371192 8.585309 -2.538474
1305031526.999691 -0.371192 8.585309 -2.538474
1305031527.000834 -0.371192 8.585309 -2.538474
1305031527.002290 -0.371192 8.585309 -2.538474
1305031527.005588 -0.275400 8.776892 -2.538474
1305031527.006577 -0.275400 8.776892 -2.538474
1305031527.009797 -0.275400 8.776892 -2.442682
1305031527.010814 -0.275400 8.776892 -2.442682
1305031527.014430 -0.323296 8.776892 -2.155308
1305031527.015427 -0.323296 8.776892 -2.155308
1305031527.018689 -0.371192 8.824788 -2.047542
1305031527.019675 -0.371192 8.824788 -2.047542
1305031527.023315 -0.263426 8.968475 -1.963725
1305031527.024292 -0.263426 8.968475 -1.963725
1305031527.025559 -0.263426 8.968475 -1.963725
1305031527.026541 -0.263426 8.968475 -1.963725
1305031527.029824 -0.083818 9.160058 -1.484768
1305031527.030811 -0.083818 9.160058 -1.484768
1305031527.034440 0.011974 9.351641 -1.293185
1305031527.035570 0.011974 9.351641 -1.293185
1305031527.038710 -0.083818 9.351641 -1.197393
1305031527.039681 -0.083818 9.351641 -1.197393
1305031527.043285 -0.191583 9.447432 -0.910019
1305031527.044303 -0.191583 9.447432 -0.910019
1305031527.045543 -0.191583 9.447432 -0.910019
1305031527.046575 -0.191583 9.447432 -0.910019
1305031527.049687 0.107765 9.351641 -0.933967
1305031527.050805 0.107765 9.351641 -0.933967
1305031527.054440 0.107765 9.351641 -1.293185
1305031527.055403 0.107765 9.351641 -1.293185
1305031527.058696 0.095791 9.351641 -1.580559
1305031527.059682 0.095791 9.351641 -1.580559
1305031527.063304 -0.083818 9.184006 -1.388976
1305031527.064311 -0.083818 9.184006 -1.388976
1305031527.065548 -0.083818 9.184006 -1.388976
1305031527.066672 -0.083818 9.184006 -1.388976
1305031527.069784 0.059870 8.968475 -1.867933
1305031527.070854 0.059870 8.968475 -1.867933
1305031527.074425 0.107765 8.824788 -1.676350
1305031527.075415 0.107765 8.824788 -1.676350
1305031527.078661 0.011974 8.764918 -1.676350
1305031527.079698 0.011974 8.764918 -1.676350
1305031527.081298 0.011974 8.764918 -1.676350
1305031527.084426 -0.191583 8.776892 -1.772142
1305031527.085413 -0.191583 8.776892 -1.772142
1305031527.088688 -0.275400 8.585309 -2.035568
1305031527.089790 -0.275400 8.585309 -2.035568
1305031527.093306 -0.323296 8.681100 -1.772142
1305031527.094438 -0.323296 8.681100 -1.772142
1305031527.095574 -0.323296 8.681100 -1.772142
1305031527.096682 -0.323296 8.681100 -1.772142
1305031527.099818 -0.371192 8.776892 -1.484768
1305031527.100806 -0.371192 8.776892 -1.484768
1305031527.104430 -0.478957 8.968475 -1.293185
1305031527.105482 -0.478957 8.968475 -1.293185
1305031527.108677 -0.287374 9.136110 -1.245289
1305031527.109666 -0.287374 9.136110 -1.245289
1305031527.113281 -0.275400 9.255849 -0.933967
1305031527.114249 -0.275400 9.255849 -0.933967
1305031527.115501 -0.275400 9.255849 -0.933967
1305031527.116557 -0.275400 9.255849 -0.933967
1305031527.119683 -0.263426 9.543224 -0.718436
1305031527.120823 -0.263426 9.543224 -0.718436
1305031527.124307 -0.191583 9.543224 -0.478957
1305031527.125431 -0.191583 9.543224 -0.478957
1305031527.128696 0.095791 9.495328 -0.335270
1305031527.129693 0.095791 9.495328 -0.335270
1305031527.133309 0.107765 9.543224 -0.239479
1305031527.134449 0.107765 9.543224 -0.239479
1305031527.135454 0.107765 9.543224 -0.239479
1305031527.138714 0.287374 9.555197 -0.191583
1305031527.139665 0.287374 9.555197 -0.191583
1305031527.143168 0.191583 9.639015 -0.047896
1305031527.144292 0.191583 9.639015 -0.047896
1305031527.145541 0.191583 9.639015 -0.047896
1305031527.146578 0.191583 9.639015 -0.047896
1305031527.149840 0.395140 9.591119 -0.095791
1305031527.150814 0.395140 9.591119 -0.095791
1305031527.154304 0.287374 9.351641 -0.143687
1305031527.155296 0.287374 9.351641 -0.143687
1305031527.158688 0.478957 9.064266 -0.526853
1305031527.159688 0.478957 9.064266 -0.526853
1305031527.161304 0.478957 9.064266 -0.526853
1305031527.164436 0.287374 8.585309 -0.526853
1305031527.165423 0.287374 8.585309 -0.526853
1305031527.168727 0.107765 8.345830 -0.622644
1305031527.169725 0.107765 8.345830 -0.622644
1305031527.173297 -0.083818 8.202143 -0.718436
1305031527.174290 -0.083818 8.202143 -0.718436
1305031527.175541 -0.083818 8.202143 -0.718436
1305031527.176544 -0.083818 8.202143 -0.718436
1305031527.179687 -0.083818 8.034508 -0.526853
1305031527.180826 -0.083818 8.034508 -0.526853
1305031527.184304 -0.191583 8.202143 -0.514879
1305031527.185415 -0.191583 8.202143 -0.514879
1305031527.188680 -0.275400 8.489518 -0.335270
1305031527.189669 -0.275400 8.489518 -0.335270
1305031527.193312 -0.275400 8.800840 -0.143687
1305031527.194335 -0.275400 8.800840 -0.143687
1305031527.195565 -0.275400 8.800840 -0.143687
1305031527.196557 -0.275400 8.800840 -0.143687
1305031527.199684 -0.239479 9.255849 0.047896
1305031527.200694 -0.239479 9.255849 0.047896
1305031527.203930 -0.083818 9.734806 0.047896
1305031527.205199 -0.083818 9.734806 0.047896
1305031527.208436 0.011974 9.926389 0.143687
1305031527.209542 0.011974 9.926389 0.143687
1305031527.210897 0.011974 9.926389 0.143687
1305031527.211749 0.011974 9.926389 0.143687
1305031527.215324 0.119739 9.926389 -0.119739
1305031527.216319 0.119739 9.926389 -0.119739
1305031527.219572 0.191583 9.830598 -0.095791
1305031527.220666 0.191583 9.830598 -0.095791
1305031527.223823 0.287374 9.591119 -0.143687
1305031527.224793 0.287374 9.591119 -0.143687
1305031527.228443 0.287374 9.543224 -0.335270
1305031527.229563 0.287374 9.543224 -0.335270
1305031527.230793 0.287374 9.543224 -0.335270
1305031527.231803 0.287374 9.543224 -0.335270
1305031527.235433 0.191583 9.160058 -0.550801
1305031527.236429 0.191583 9.160058 -0.550801
1305031527.239662 0.059870 9.136110 -0.622644
1305031527.240670 0.059870 9.136110 -0.622644
1305031527.244309 0.011974 8.776892 -0.910019
1305031527.245288 0.011974 8.776892 -0.910019
1305031527.248590 0.095791 8.728996 -1.269237
1305031527.249675 0.095791 8.728996 -1.269237
1305031527.250931 0.095791 8.728996 -1.269237
1305031527.252291 0.095791 8.728996 -1.269237
1305031527.255301 0.059870 8.728996 -1.101602
1305031527.258441 0.083818 8.681100 -1.317132
1305031527.259433 0.083818 8.681100 -1.317132
1305031527.260669 0.083818 8.681100 -1.317132
1305031527.261796 0.083818 8.681100 -1.317132
1305031527.265318 0.011974 8.776892 -1.388976
1305031527.266293 0.011974 8.776892 -1.388976
1305031527.269582 -0.083818 8.968475 -1.484768
1305031527.270748 -0.083818 8.968475 -1.484768
1305031527.273677 -0.275400 9.495328 -1.293185
1305031527.274666 -0.275400 9.495328 -1.293185
1305031527.278302 -0.083818 9.543224 -1.388976
1305031527.279315 -0.083818 9.543224 -1.388976
1305031527.280572 -0.083818 9.543224 -1.388976
1305031527.281680 -0.083818 9.543224 -1.388976
1305031527.284807 0.059870 9.734806 -1.676350
1305031527.285784 0.059870 9.734806 -1.676350
1305031527.289442 -0.083818 9.926389 -1.676350
1305031527.290431 -0.083818 9.926389 -1.676350
1305031527.293698 0.107765 9.878494 -1.664376
1305031527.294684 0.107765 9.878494 -1.664376
1305031527.296179 0.107765 9.878494 -1.664376
1305031527.297293 0.107765 9.878494 -1.664376
1305031527.300613 0.095791 9.734806 -1.484768
1305031527.301711 0.095791 9.734806 -1.484768
1305031527.304838 0.107765 9.543224 -1.772142
1305031527.305840 0.107765 9.543224 -1.772142
1305031527.309422 0.119739 9.351641 -1.963725
1305031527.310416 0.119739 9.351641 -1.963725
1305031527.313669 0.095791 9.160058 -2.011621
1305031527.314668 0.095791 9.160058 -2.011621
1305031527.318299 0.083818 8.872683 -1.963725
1305031527.319291 0.083818 8.872683 -1.963725
1305031527.320549 0.083818 8.872683 -1.963725
1305031527.321544 0.083818 8.872683 -1.963725
1305031527.324686 0.119739 8.681100 -2.059516
1305031527.325806 0.119739 8.681100 -2.059516
1305031527.329459 0.143687 8.681100 -1.724246
1305031527.330437 0.143687 8.681100 -1.724246
1305031527.333684 0.287374 8.681100 -1.676350
1305031527.334680 0.287374 8.681100 -1.676350
1305031527.338349 0.287374 8.585309 -1.484768
1305031527.339312 0.287374 8.585309 -1.484768
1305031527.340566 0.287374 8.585309 -1.484768
1305031527.341559 0.287374 8.585309 -1.484768
1305031527.344687 0.287374 8.776892 -1.676350
1305031527.345808 0.287374 8.776892 -1.676350
1305031527.349343 0.466983 8.872683 -1.676350
1305031527.350414 0.466983 8.872683 -1.676350
1305031527.353556 0.287374 9.148084 -1.867933
1305031527.354655 0.287374 9.148084 -1.867933
1305031527.355812 0.287374 9.148084 -1.867933
1305031527.356914 0.287374 9.148084 -1.867933
1305031527.360597 0.395140 9.160058 -2.251099
1305031527.361563 0.395140 9.160058 -2.251099
1305031527.364822 0.478957 9.160058 -2.442682
1305031527.365808 0.478957 9.160058 -2.442682
1305031527.369432 0.287374 9.160058 -2.442682
1305031527.370424 0.287374 9.160058 -2.442682
1305031527.373685 0.443035 9.160058 -2.825848
1305031527.374676 0.443035 9.160058 -2.825848
1305031527.376165 0.443035 9.160058 -2.825848
1305031527.377307 0.443035 9.160058 -2.825848
1305031527.380610 0.287374 9.172032 -2.490578
1305031527.381562 0.287374 9.172032 -2.490578
1305031527.384687 0.466983 9.148084 -2.442682
1305031527.385793 0.466983 9.148084 -2.442682
1305031527.389297 0.502905 9.112162 -2.442682
1305031527.390412 0.502905 9.112162 -2.442682
1305031527.393564 0.574749 9.112162 -2.490578
1305031527.394562 0.574749 9.112162 -2.490578
1305031527.395815 0.574749 9.112162 -2.490578
1305031527.396814 0.574749 9.112162 -2.490578
1305031527.400448 0.478957 9.064266 -2.538474
1305031527.401595 0.478957 9.064266 -2.538474
1305031527.404837 0.502905 9.112162 -2.777952
1305031527.405797 0.502905 9.112162 -2.777952
1305031527.409437 0.526853 9.160058 -2.825848
1305031527.410433 0.526853 9.160058 -2.825848
1305031527.413563 0.478957 9.160058 -2.813874
1305031527.414562 0.478957 9.160058 -2.813874
1305031527.415821 0.478957 9.160058 -2.813874
1305031527.416812 0.478957 9.160058 -2.813874
1305031527.420430 0.574749 8.968475 -3.209014
1305031527.421554 0.574749 8.968475 -3.209014
1305031527.424689 0.490931 9.136110 -3.209014
1305031527.425809 0.490931 9.136110 -3.209014
1305031527.429316 0.526853 9.136110 -3.256909
1305031527.430417 0.526853 9.136110 -3.256909
1305031527.433573 0.478957 9.064266 -3.209014
1305031527.434564 0.478957 9.064266 -3.209014
1305031527.435794 0.478957 9.064266 -3.209014
1305031527.436802 0.478957 9.064266 -3.209014
1305031527.440440 0.574749 8.872683 -3.400597
1305031527.441555 0.574749 8.872683 -3.400597
1305031527.444684 0.478957 8.968475 -3.304805
1305031527.445809 0.478957 8.968475 -3.304805
1305031527.449430 0.478957 8.968475 -3.209014
1305031527.450437 0.478957 8.968475 -3.209014
1305031527.453695 0.478957 9.160058 -2.921639
1305031527.454663 0.478957 9.160058 -2.921639
1305031527.458302 0.478957 9.160058 -2.825848
1305031527.459290 0.478957 9.160058 -2.825848
1305031527.460559 0.478957 9.160058 -2.825848
1305031527.461559 0.478957 9.160058 -2.825848
1305031527.464836 0.574749 9.160058 -2.634265
1305031527.465795 0.574749 9.160058 -2.634265
1305031527.469456 0.826201 9.207953 -2.825848
1305031527.470432 0.826201 9.207953 -2.825848
1305031527.473685 0.778306 9.351641 -2.825848
1305031527.474675 0.778306 9.351641 -2.825848
1305031527.478320 0.682514 9.255849 -2.538474
1305031527.479335 0.682514 9.255849 -2.538474
1305031527.480578 0.682514 9.255849 -2.538474
1305031527.481597 0.682514 9.255849 -2.538474
1305031527.484820 0.862123 8.968475 -3.017431
1305031527.485818 0.862123 8.968475 -3.017431
1305031527.489453 0.682514 8.968475 -3.017431
1305031527.490432 0.682514 8.968475 -3.017431
1305031527.493686 0.574749 8.824788 -3.017431
1305031527.494672 0.574749 8.824788 -3.017431
1305031527.498312 0.526853 8.968475 -2.825848
1305031527.499302 0.526853 8.968475 -2.825848
1305031527.500568 0.526853 8.968475 -2.825848
1305031527.501590 0.526853 8.968475 -2.825848
1305031527.504709 0.826201 8.752944 -2.837822
1305031527.505836 0.826201 8.752944 -2.837822
1305031527.509440 0.682514 8.800840 -2.730056
1305031527.510431 0.682514 8.800840 -2.730056
1305031527.513687 0.682514 8.776892 -2.825848
1305031527.514673 0.682514 8.776892 -2.825848
1305031527.518311 0.826201 8.752944 -2.837822
1305031527.519290 0.826201 8.752944 -2.837822
1305031527.520556 0.826201 8.752944 -2.837822
1305031527.521677 0.826201 8.752944 -2.837822
1305031527.524810 0.490931 8.776892 -3.113222
1305031527.525807 0.490931 8.776892 -3.113222
1305031527.529451 0.862123 8.776892 -3.256909
1305031527.530417 0.862123 8.776892 -3.256909
1305031527.533690 0.682514 8.872683 -3.256909
1305031527.534696 0.682514 8.872683 -3.256909
1305031527.538299 0.526853 8.824788 -3.496388
1305031527.539300 0.526853 8.824788 -3.496388
1305031527.540564 0.526853 8.824788 -3.496388
1305031527.541553 0.526853 8.824788 -3.496388
1305031527.544684 0.478957 8.968475 -3.592179
1305031527.545805 0.478957 8.968475 -3.592179
1305031527.549462 0.502905 8.872683 -3.687971
1305031527.550424 0.502905 8.872683 -3.687971
1305031527.553696 0.682514 8.788866 -3.592179
1305031527.554681 0.682514 8.788866 -3.592179
1305031527.558304 0.778306 8.776892 -3.568232
1305031527.559314 0.778306 8.776892 -3.568232
1305031527.560560 0.778306 8.776892 -3.568232
1305031527.561707 0.778306 8.776892 -3.568232
1305031527.564681 0.778306 8.824788 -3.496388
1305031527.565794 0.778306 8.824788 -3.496388
1305031527.569318 0.778306 8.968475 -3.544284
1305031527.570372 0.778306 8.968475 -3.544284
1305031527.573560 0.682514 9.064266 -3.400597
1305031527.574554 0.682514 9.064266 -3.400597
1305031527.575807 0.682514 9.064266 -3.400597
1305031527.576938 0.682514 9.064266 -3.400597
1305031527.580466 0.862123 8.872683 -3.496388
1305031527.581573 0.862123 8.872683 -3.496388
1305031527.584827 0.886071 8.776892 -3.783762
1305031527.585813 0.886071 8.776892 -3.783762
1305031527.589437 0.910019 8.681100 -3.879554
1305031527.590426 0.910019 8.681100 -3.879554
1305031527.593693 0.862123 8.441622 -3.975345
1305031527.594687 0.862123 8.441622 -3.975345
1305031527.598348 1.053706 8.345830 -4.166928
1305031527.599304 1.053706 8.345830 -4.166928
1305031527.600732 1.053706 8.345830 -4.166928
1305031527.601705 1.053706 8.345830 -4.166928
1305031527.604676 0.862123 8.297935 -4.166928
1305031527.605835 0.862123 8.297935 -4.166928
1305031527.609472 0.862123 8.417674 -4.358511
1305031527.610430 0.862123 8.417674 -4.358511
1305031527.613559 0.862123 8.681100 -4.645885
1305031527.614560 0.862123 8.681100 -4.645885
1305031527.615819 0.862123 8.681100 -4.645885
1305031527.616822 0.862123 8.681100 -4.645885
1305031527.620433 0.478957 9.136110 -4.837468
1305031527.621555 0.478957 9.136110 -4.837468
1305031527.624812 0.478957 9.160058 -5.220634
1305031527.625808 0.478957 9.160058 -5.220634
1305031527.629458 0.478957 9.531250 -5.508009
1305031527.630431 0.478957 9.531250 -5.508009
1305031527.633687 0.287374 9.830598 -5.555904
1305031527.634701 0.287374 9.830598 -5.555904
1305031527.638353 0.478957 9.734806 -5.699591
1305031527.639344 0.478957 9.734806 -5.699591
1305031527.640502 0.478957 9.734806 -5.699591
1305031527.641497 0.478957 9.734806 -5.699591
1305031527.644624 0.287374 9.734806 -5.508009
1305031527.645746 0.287374 9.734806 -5.508009
1305031527.649299 0.287374 9.495328 -5.555904
1305031527.650417 0.287374 9.495328 -5.555904
1305031527.653687 0.287374 9.160058 -5.843279
1305031527.654792 0.287374 9.160058 -5.843279
1305031527.658438 0.466983 8.800840 -5.891174
1305031527.659433 0.466983 8.800840 -5.891174
1305031527.660558 0.466983 8.800840 -5.891174
1305031527.661687 0.466983 8.800840 -5.891174
1305031527.664694 0.526853 8.489518 -5.699591
1305031527.665817 0.526853 8.489518 -5.699591
1305031527.669461 0.490931 8.585309 -5.519982
1305031527.670450 0.490931 8.585309 -5.519982
1305031527.673673 0.682514 8.681100 -5.496035
1305031527.674669 0.682514 8.681100 -5.496035
1305031527.678293 0.478957 8.776892 -5.508009
1305031527.679300 0.478957 8.776892 -5.508009
1305031527.680574 0.478957 8.776892 -5.508009
1305031527.681540 0.478957 8.776892 -5.508009
1305031527.684802 0.287374 8.776892 -5.124843
1305031527.685851 0.287374 8.776892 -5.124843
1305031527.689440 0.478957 8.681100 -5.124843
1305031527.690431 0.478957 8.681100 -5.124843
1305031527.693733 0.778306 8.489518 -5.412217
1305031527.694811 0.778306 8.489518 -5.412217
1305031527.698451 0.886071 8.728996 -5.112869
1305031527.699417 0.886071 8.728996 -5.112869
1305031527.700674 0.886071 8.728996 -5.112869
1305031527.701668 0.886071 8.728996 -5.112869
1305031527.704806 0.910019 8.728996 -5.029051
1305031527.705792 0.910019 8.728996 -5.029051
1305031527.709421 1.053706 8.776892 -5.124843
1305031527.710414 1.053706 8.776892 -5.124843
1305031527.713673 1.053706 8.681100 -5.124843
1305031527.714667 1.053706 8.681100 -5.124843
1305031527.718298 0.910019 8.489518 -5.124843
1305031527.719286 0.910019 8.489518 -5.124843
1305031527.720586 0.910019 8.489518 -5.124843
1305031527.721557 0.910019 8.489518 -5.124843
1305031527.724685 1.161471 8.297935 -5.220634
1305031527.725806 1.161471 8.297935 -5.220634
1305031527.729452 0.957915 8.297935 -4.933260
1305031527.730432 0.957915 8.297935 -4.933260
1305031527.733705 1.209367 8.489518 -5.124843
1305031527.734692 1.209367 8.489518 -5.124843
1305031527.738295 1.053706 8.393726 -5.220634
1305031527.739285 1.053706 8.393726 -5.220634
1305031527.740563 1.053706 8.393726 -5.220634
1305031527.741680 1.053706 8.393726 -5.220634
1305031527.744683 1.053706 8.393726 -5.124843
1305031527.745805 1.053706 8.393726 -5.124843
1305031527.749424 1.053706 8.393726 -5.508009
1305031527.750411 1.053706 8.393726 -5.508009
1305031527.753676 0.957915 8.393726 -5.891174
1305031527.754793 0.957915 8.393726 -5.891174
1305031527.758300 0.862123 8.393726 -5.795383
1305031527.759308 0.862123 8.393726 -5.795383
1305031527.760559 0.862123 8.393726 -5.795383
1305031527.761683 0.862123 8.393726 -5.795383
1305031527.764834 0.826201 8.393726 -5.843279
1305031527.765801 0.826201 8.393726 -5.843279
1305031527.769436 0.874097 8.441622 -5.843279
1305031527.770422 0.874097 8.441622 -5.843279
1305031527.773687 1.161471 8.369778 -5.891174
1305031527.774662 1.161471 8.369778 -5.891174
1305031527.778297 1.233315 8.405700 -5.986966
1305031527.779318 1.233315 8.405700 -5.986966
1305031527.780565 1.233315 8.405700 -5.986966
1305031527.781540 1.233315 8.405700 -5.986966
1305031527.784688 1.245289 8.202143 -5.891174
1305031527.785793 1.245289 8.202143 -5.891174
1305031527.789424 1.293185 8.106352 -6.082757
1305031527.790421 1.293185 8.106352 -6.082757
1305031527.793688 1.341080 7.986612 -5.891174
1305031527.794680 1.341080 7.986612 -5.891174
1305031527.798311 1.544637 7.914769 -5.891174
1305031527.799303 1.544637 7.914769 -5.891174
1305031527.800557 1.544637 7.914769 -5.891174
1305031527.801560 1.544637 7.914769 -5.891174
1305031527.804821 1.448846 7.962665 -5.699591
1305031527.805844 1.448846 7.962665 -5.699591
1305031527.809471 1.544637 7.914769 -5.843279
1305031527.810432 1.544637 7.914769 -5.843279
1305031527.813686 1.448846 7.723186 -5.508009
1305031527.814679 1.448846 7.723186 -5.508009
1305031527.818331 1.341080 7.627394 -5.531956
1305031527.819307 1.341080 7.627394 -5.531956
1305031527.820554 1.341080 7.627394 -5.531956
1305031527.821671 1.341080 7.627394 -5.531956
1305031527.824672 1.341080 7.435812 -5.555904
1305031527.825809 1.341080 7.435812 -5.555904
1305031527.829303 1.448846 7.531603 -5.508009
1305031527.830468 1.448846 7.531603 -5.508009
1305031527.833704 1.448846 7.627394 -5.508009
1305031527.834674 1.448846 7.627394 -5.508009
1305031527.838315 1.592533 7.639368 -5.508009
1305031527.839287 1.592533 7.639368 -5.508009
1305031527.840566 1.592533 7.639368 -5.508009
1305031527.841554 1.592533 7.639368 -5.508009
1305031527.844680 1.628455 7.675290 -5.508009
1305031527.845803 1.628455 7.675290 -5.508009
1305031527.849454 1.640429 7.818977 -5.508009
1305031527.850448 1.640429 7.818977 -5.508009
1305031527.853683 1.640429 7.962665 -5.412217
1305031527.854658 1.640429 7.962665 -5.412217
1305031527.858292 1.724246 7.818977 -5.508009
1305031527.859287 1.724246 7.818977 -5.508009
1305031527.860558 1.724246 7.818977 -5.508009
1305031527.861665 1.724246 7.818977 -5.508009
1305031527.864699 1.820038 7.818977 -5.699591
1305031527.865800 1.820038 7.818977 -5.699591
1305031527.869476 1.927803 7.818977 -6.082757
1305031527.870452 1.927803 7.818977 -6.082757
1305031527.873701 1.820038 7.627394 -6.178549
1305031527.874698 1.820038 7.627394 -6.178549
1305031527.878325 1.820038 7.627394 -6.633558
1305031527.879467 1.820038 7.627394 -6.633558
1305031527.880553 1.820038 7.627394 -6.633558
1305031527.881669 1.820038 7.627394 -6.633558
1305031527.884795 1.640429 7.268176 -6.992776
1305031527.885914 1.640429 7.268176 -6.992776
1305031527.889436 1.448846 7.268176 -7.040672
1305031527.890465 1.448846 7.268176 -7.040672
1305031527.893695 1.293185 7.232255 -7.375942
1305031527.894694 1.293185 7.232255 -7.375942
1305031527.898308 1.293185 7.052646 -7.423838
1305031527.899438 1.293185 7.052646 -7.423838
1305031527.900563 1.293185 7.052646 -7.423838
1305031527.901686 1.293185 7.052646 -7.423838
1305031527.904804 1.053706 7.148437 -7.328046
1305031527.905821 1.053706 7.148437 -7.328046
1305031527.909437 1.161471 7.148437 -7.136463
1305031527.910432 1.161471 7.148437 -7.136463
1305031527.913684 1.053706 7.220281 -6.992776
1305031527.914684 1.053706 7.220281 -6.992776
1305031527.918297 1.161471 7.196333 -6.849089
1305031527.919317 1.161471 7.196333 -6.849089
1305031527.920549 1.161471 7.196333 -6.849089
1305031527.921665 1.161471 7.196333 -6.849089
1305031527.924838 1.257263 7.244229 -6.262366
1305031527.925961 1.257263 7.244229 -6.262366
1305031527.929592 1.209367 7.531603 -5.699591
1305031527.930556 1.209367 7.531603 -5.699591
1305031527.933713 1.257263 7.579499 -5.699591
1305031527.934693 1.257263 7.579499 -5.699591
1305031527.938297 1.257263 7.675290 -5.460113
1305031527.939295 1.257263 7.675290 -5.460113
1305031527.940562 1.257263 7.675290 -5.460113
1305031527.941555 1.257263 7.675290 -5.460113
1305031527.944814 1.341080 7.818977 -5.460113
1305031527.945805 1.341080 7.818977 -5.460113
1305031527.949421 1.448846 7.914769 -5.220634
1305031527.950415 1.448846 7.914769 -5.220634
1305031527.953676 1.592533 7.986612 -5.220634
1305031527.954702 1.592533 7.986612 -5.220634
1305031527.958482 1.544637 8.106352 -5.519982
1305031527.959440 1.544637 8.106352 -5.519982
1305031527.960433 1.544637 8.106352 -5.519982
1305031527.963725 1.257263 8.345830 -5.891174
1305031527.964695 1.257263 8.345830 -5.891174
1305031527.968304 0.957915 8.106352 -6.250392
1305031527.969310 0.957915 8.106352 -6.250392
1305031527.970586 0.957915 8.106352 -6.250392
1305031527.971596 0.957915 8.106352 -6.250392
1305031527.974810 0.862123 8.010560 -6.645532
1305031527.975808 0.862123 8.010560 -6.645532
1305031527.979453 0.526853 7.818977 -6.465923
1305031527.980433 0.526853 7.818977 -6.465923
1305031527.983683 0.682514 7.723186 -6.657506
1305031527.984668 0.682514 7.723186 -6.657506
1305031527.988303 0.478957 7.914769 -6.657506
1305031527.989412 0.478957 7.914769 -6.657506
1305031527.990614 0.478957 7.914769 -6.657506
1305031527.991683 0.478957 7.914769 -6.657506
1305031527.994819 0.526853 7.818977 -6.849089
1305031527.995842 0.526853 7.818977 -6.849089
1305031527.999605 0.478957 7.818977 -6.298288
1305031528.000592 0.478957 7.818977 -6.298288
1305031528.003838 0.478957 7.914769 -6.370132
1305031528.004842 0.478957 7.914769 -6.370132
1305031528.005829 0.478957 7.914769 -6.370132
1305031528.009434 0.778306 7.914769 -6.178549
1305031528.010433 0.778306 7.914769 -6.178549
1305031528.013685 0.682514 8.010560 -5.843279
1305031528.014682 0.682514 8.010560 -5.843279
1305031528.018455 0.826201 8.202143 -5.412217
1305031528.019430 0.826201 8.202143 -5.412217
1305031528.020705 0.826201 8.202143 -5.412217
1305031528.021680 0.826201 8.202143 -5.412217
1305031528.024789 0.957915 8.393726 -5.148791
1305031528.025809 0.957915 8.393726 -5.148791
1305031528.029299 1.053706 8.417674 -5.148791
1305031528.030471 1.053706 8.417674 -5.148791
1305031528.033697 1.053706 8.681100 -5.148791
1305031528.034680 1.053706 8.681100 -5.148791
1305031528.035812 1.053706 8.681100 -5.148791
1305031528.036967 1.053706 8.681100 -5.148791
1305031528.040440 0.910019 8.728996 -5.148791
1305031528.041554 0.910019 8.728996 -5.148791
1305031528.044804 0.957915 8.585309 -5.508009
1305031528.045786 0.957915 8.585309 -5.508009
1305031528.049438 0.957915 8.393726 -5.699591
1305031528.050554 0.957915 8.393726 -5.699591
1305031528.053685 0.682514 8.106352 -5.891174
1305031528.054667 0.682514 8.106352 -5.891174
1305031528.058434 0.574749 7.914769 -6.250392
1305031528.059418 0.574749 7.914769 -6.250392
1305031528.060682 0.574749 7.914769 -6.250392
1305031528.061668 0.574749 7.914769 -6.250392
1305031528.064755 0.526853 7.818977 -6.274340
1305031528.065820 0.526853 7.818977 -6.274340
1305031528.069444 0.478957 7.675290 -6.322236
1305031528.070429 0.478957 7.675290 -6.322236
1305031528.073695 0.478957 7.627394 -6.322236
1305031528.074676 0.478957 7.627394 -6.322236
1305031528.076160 0.478957 7.627394 -6.322236
1305031528.077282 0.478957 7.627394 -6.322236
1305031528.080960 0.478957 7.627394 -5.986966
1305031528.083726 0.443035 7.639368 -5.699591
1305031528.084660 0.443035 7.639368 -5.699591
1305031528.088565 0.395140 7.818977 -5.412217
1305031528.089435 0.395140 7.818977 -5.412217
1305031528.091061 0.395140 7.818977 -5.412217
1305031528.093795 0.395140 8.010560 -4.837468
1305031528.094810 0.395140 8.010560 -4.837468
1305031528.098427 0.478957 8.106352 -4.729703
